File: Data/Mo/Mo-K-Na2MoO4.xdi
# XDI/1.0 BlueSky/1.13.0a3 BMM/2024-2.0-py310-tiled
# Beamline.name: BMM (06BM) -- Beamline for Materials Measurement (NIST)
# Beamline.collimation: paraboloid mirror, 5 nm Rh on 30 nm Pt
# Beamline.xray_source: NSLS-II three-pole wiggler
# Beamline.focusing: not in use
# Beamline.harmonic_rejection: flat mirror, Pt stripe, pitch = 7.0 mrad relative to beam
# Beamline.software: Bluesky 1.13.0a4, Ophyd 1.9.0, DataBroker 2.0.0b45, Python 3.11.6, 2024-2.3-py311-tiled
# Detector.I0: 25 cm N2, NSLS2 IC
# Detector.It: 25 cm N2, NSLS2 IC
# Detector.Ir: 25 cm N2, NSLS2 IC
# Detector.fluorescence: Hitachi Vortex ME7 (7-element silicon drift)
# Detector.deadtime_correction: Xspress3
# Element.edge: K
# Element.symbol: Mo
# Element.reference: Mo
# Element.reference_material: Mo foil
# Facility.name: NSLS-II
# Facility.energy: 3.0
# Facility.GUP: 318519
# Facility.SAF: 316542
# Facility.cycle: 2025-2
# Facility.current: 400.1
# Facility.mode: top-off
# Mono.name: Si(111)
# Mono.d_spacing: 3.13553
# Mono.encoder_resolution: 5e-06
# Mono.angle_offset: 16.0812
# Mono.direction: forward
# Mono.scan_type: step
# Mono.scan_mode: pseudo channel cut
# Sample.name: ...
# Sample.prep: 2 abs. lengths in PEG pellet. Double kapton containment.
# Sample.SDD_position: 205.0
# Sample.x: 66.174
# Sample.y: 176.101
# Sample.wheel_slot: 1
# Sample.wheel_ring: outer
# Scan.edge_energy: 19999.5
# Scan.experimenters: Malin Dixon Wilkins, John Bussey, John Mccloy, Gavin Mccloy, Seonjin Kim, Maxwell Mccloy, John McCloy
# Scan.start_time: 2025-07-09T19:07:46
# Scan.end_time: 2025-07-09T19:16:04
# Scan.uid: d5c9c534-2849-4908-961a-0a1cc8c89d07
# Scan.transient_id: 32693
# Scan.xspress3_hdf5_file: assets/xspress3-1/2025/07/09/d8a6be9f-0853-4fba-8a75_000000.h5
# Scan.plot_hint: (Mo1+Mo2+Mo3+Mo4+Mo5+Mo6+Mo7)/I0  --  ($8+$9+$10+$11+$12+$13+$14)/$5
# Column.1: energy eV
# Column.2: requested_energy eV
# Column.3: measurement_time seconds
# Column.4: xmu
# Column.5: I0 nA
# Column.6: Itrans nA
# Column.7: Irefer nA
# Column.8: Mo1
# Column.9: Mo2
# Column.10: Mo3
# Column.11: Mo4
# Column.12: Mo5
# Column.13: Mo6
# Column.14: Mo7
# //////////////////////////////////////////////////////////
# ...
# ----------------------------------------------------------
# energy requested_energy measurement_time xmu I0 It Ir Mo1 Mo2 Mo3 Mo4 Mo5 Mo6 Mo7
19799.5 19799.5 0.500000 474.859 9.586796 7.194422 7.555755 675.201 681.2 626.188 655.199 640.188 667.214 607.183
19809.6 19809.5 0.500000 532.342 9.545592 7.166068 7.529323 719.211 736.213 751.224 727.217 720.209 723.231 704.211
19819.6 19819.5 0.500000 599.936 9.498869 7.137393 7.499731 827.244 862.253 837.251 815.246 751.219 837.269 768.232
19829.6 19829.5 0.500000 660.138 9.455407 7.109129 7.470969 845.248 883.259 937.281 962.288 894.262 869.279 850.256
19839.7 19839.5 0.500000 744.715 9.413161 7.083459 7.445313 994.296 1029.3 1007.31 1025.31 962.285 988.322 1003.3
19849.6 19849.5 0.500000 833.166 9.376771 7.057091 7.420066 1117.34 1132.34 1155.36 1219.38 1072.32 1088.36 1027.32
19859.6 19859.5 0.500000 931.727 9.334016 7.027456 7.389081 1209.38 1254.39 1343.42 1261.4 1183.36 1234.42 1210.39
19869.6 19869.5 0.500000 1019.72 9.287908 6.997271 7.357065 1326.42 1464.46 1400.45 1403.45 1305.41 1293.44 1277.41
19879.7 19879.5 0.500000 1165.33 9.251148 6.970902 7.330747 1566.52 1519.5 1596.54 1584.53 1496.49 1556.56 1460.49
19889.6 19889.5 0.500000 1326.91 9.109264 6.869427 7.220843 1778.6 1739.58 1733.59 1779.62 1673.55 1756.64 1625.56
19899.6 19899.5 0.500000 1494.96 9.176741 6.917392 7.271782 1930.67 1943.68 2104.76 1992.71 1922.67 1928.74 1895.68
19909.6 19909.5 0.500000 1761.56 9.134028 6.881863 7.235516 2307.87 2291.85 2364.9 2380.92 2280.85 2202.9 2260.87
19919.6 19919.5 0.500000 1980.44 9.093002 6.847098 7.194713 2595.02 2552.99 2641.05 2668.07 2554.99 2550.09 2445.98
19929.6 19929.5 0.500000 2326.35 9.054585 6.814002 7.154159 3050.31 3131.33 3026.32 3044.33 2989.26 2952.38 2870.25
19939.6 19939.5 0.500000 2762.67 9.011878 6.771008 7.103161 3534.66 3557.64 3696.76 3608.72 3462.6 3499.78 3536.69
19949.5 19949.5 0.500000 3297.32 8.968924 6.724863 7.043655 4189.15 4272.17 4249.21 4345.27 4177.12 4112.29 4228.22
19959.6 19959.5 0.500000 4084.96 8.930239 6.669650 6.972515 5165.03 5227.01 5376.2 5265.12 5186 5078.23 5182.1
19969.6 19969.5 0.500000 5349.13 8.890963 6.602589 6.873486 6838.81 6802.72 6927.93 6976.98 6658.61 6738.15 6615.72
19971.5 19971.5 0.500000 5595.72 8.885961 6.587802 6.852308 7127.14 7129.07 7150.21 7204.29 7008.97 7031.49 7072.18
19973.5 19973.5 0.500000 5948.57 8.875309 6.565653 6.822049 7742.87 7484.59 7630.82 7697.89 7435.54 7368.01 7435.72
19975.6 19975.5 0.500000 6255.38 8.867621 6.548811 6.795757 7906.22 7963.2 8158.51 8062.45 7734.99 7805.66 7839.27
19977.6 19977.5 0.500000 6717.14 8.858861 6.524993 6.759125 8581.17 8523.01 8736.37 8775.43 8286.77 8197.38 8406.1
19979.6 19979.5 0.500000 7180.21 8.846395 6.499713 6.720953 8947.74 8948.66 9304.19 9266.15 9095.81 8919.43 9037
19981.5 19981.5 0.500000 7704.68 8.836817 6.470476 6.678182 9663.92 9783.94 9961.34 9907.32 9595.76 9666.7 9505.91
19983.5 19983.5 0.500000 8408.62 8.830259 6.438943 6.629005 10657.5 10811.6 10770.7 10802.8 10524.2 10289 10394.4
19985.5 19985.5 0.500000 9066.11 8.821355 6.404468 6.573649 11484.1 11440.9 11472.2 11682.5 11447.9 11133.7 11314.1
19987.5 19987.5 0.500000 9995.58 8.811224 6.361894 6.505022 12665.4 12534 12603.4 13035 12385.8 12388.2 12461.4
19989.5 19989.5 0.500000 11091.8 8.802297 6.312606 6.423674 14182.6 14068.2 14277.8 13983.4 13725.6 13740.4 13655.1
19990 19990 0.500000 11387.5 8.803439 6.302049 6.405864 14442.2 14618.2 14527.4 14424.3 13980.3 14007.1 14249.2
19990.4 19990.5 0.500000 11689.7 8.800854 6.286469 6.380831 14797.1 14650.6 14929.5 14938.5 14726.7 14208.8 14628.2
19991 19991 0.500000 11961.9 8.795994 6.271949 6.355398 15115 15198.9 15354.5 15337.6 14820.2 14713.1 14677.7
19991.5 19991.5 0.500000 12416.5 8.795342 6.253848 6.328961 15900.7 15577.9 15876.8 15983.1 15232.4 15380.7 15256.1
19992 19992 0.500000 12752 8.795813 6.238910 6.298883 16303.9 15741.6 16371.1 16418.3 15851.8 15855.1 15622.1
19992.5 19992.5 0.500000 13154.6 8.790440 6.219327 6.266842 16714.9 16574.4 16667 16834.4 16358.9 16157 16327.7
19993 19993 0.500000 13654.4 8.785883 6.196653 6.231880 17279.5 17230 17433 17475.1 16969.6 16747.7 16831.2
19993.5 19993.5 0.500000 14078 8.782636 6.175653 6.197765 17984.4 17491.2 18101.8 18055.8 17421 17171.2 17416.8
19994 19994 0.500000 14663.8 8.779115 6.153171 6.159089 18373.8 18532.8 18625.5 18726.8 18202.1 18092.8 18181
19994.5 19994.5 0.500000 15120.1 8.777242 6.129091 6.119577 19080.9 18944.3 19163.2 19259.6 18918.1 18652.7 18693.7
19995 19995 0.500000 15770.7 8.777395 6.105552 6.074568 19888.3 19917 20108 19820.4 19559.2 19672.8 19460.1
19995.5 19995.5 0.500000 16378.8 8.777143 6.078320 6.030848 20868.3 20499.1 20846.4 20963.9 20101.1 20125.7 20354.8
19996 19996 0.500000 17094.7 8.772627 6.047409 5.975638 21731.2 21387.1 21836.8 22097.5 21020.1 20857.6 21035.5
19996.5 19996.5 0.500000 17803.8 8.767668 6.012993 5.916085 22536.2 22445.5 22597.7 22575.8 22035.5 21901.4 22005.8
19997 19997 0.500000 18527.9 8.764197 5.974145 5.850295 23438.8 23108.4 23401 23809 22992 22706.9 22926.3
19997.4 19997.5 0.500000 19550.9 8.764204 5.939299 5.781298 24698.7 24452.4 24943.6 25075.1 24065.4 24024.2 24089
19997.9 19998 0.500000 20592.5 8.761868 5.894598 5.705883 25971.4 25726.1 26298.6 26469.3 25404.1 25002.6 25556.4
19998.4 19998.5 0.500000 21660.9 8.755342 5.841269 5.609745 27177.8 27244.3 27425.9 27826.1 26811.9 26495.9 26666.5
19998.9 19999 0.500000 23028.5 8.754464 5.786838 5.509675 29033 28952.8 29252 29173.7 28471.3 28398.8 28321
19999.5 19999.5 0.500000 24343.5 8.754586 5.727862 5.392064 30458.1 30505.2 30821.6 31138.7 29982.5 30125.5 30085.3
19999.9 20000 0.500000 26101.1 8.749883 5.654279 5.259306 32763 32691.8 33373.6 33621.6 31934.1 31784.3 32212.9
20000.5 20000.5 0.500000 28117.7 8.746446 5.569061 5.105433 35530.8 34966.7 35663 36172 34700.5 34230.9 34665.5
20001 20001 0.500000 30080.1 8.741671 5.479518 4.935282 37779.1 37856.1 38097 38251.1 37222.5 36696.9 37047.4
20001.5 20001.5 0.500000 32661.5 8.744242 5.373957 4.743630 40937 40934.3 41525.3 41463.4 40643.9 39840.9 40255.6
20002 20002 0.500000 35452 8.739776 5.245544 4.536851 44678 44487.1 45013.6 45267.9 43155.2 43372.8 43868.1
20002.5 20002.5 0.500000 39342.9 8.732023 5.082514 4.273167 49326.9 49263.1 49898.9 50386.6 48318.3 47867.3 48482.1
20003 20003 0.500000 43188.9 8.737196 4.919868 4.047321 54213 54488.5 54438.6 54875.3 52815.3 53114.1 53404.7
20003.5 20003.5 0.500000 47921 8.731588 4.716154 3.776982 60440.9 59774.8 60699.2 60933 59002.9 58518.9 59056.6
20004 20004 0.500000 53449.6 8.727180 4.477283 3.488880 67537.8 66744.9 67091.8 68197.3 65561.4 65637.9 65693.4
20004.5 20004.5 0.500000 59900.1 8.724224 4.196405 3.182705 75393.4 75238.2 75550.9 76343.3 72973.2 73530 73553.3
20005 20005 0.500000 65968.4 8.719872 3.940018 2.909178 82674.8 82731.9 82392.9 84124.9 80958.3 80681 81672.4
20005.5 20005.5 0.500000 73163.7 8.718453 3.638924 2.621222 92606.7 91363.7 91220 93278.2 89268.8 89545 90592.1
20006 20006 0.500000 80212.4 8.719947 3.321743 2.347012 100802 100405 99760.7 102293 97696.8 98924.2 99565.1
20006.5 20006.5 0.500000 87285.1 8.715623 3.011140 2.074124 109243 108681 109116 111854 106598 107433 107820
20007 20007 0.500000 93761.7 8.709861 2.743865 1.836446 117556 117055 116645 119999 113733 115405 116258
20007.5 20007.5 0.500000 99121.8 8.706523 2.499849 1.628999 124038 123839 123736 126458 120939 121349 122647
20007.9 20008 0.500000 102841 8.705096 2.333262 1.481826 128790 128279 127720 131009 124767 126874 127802
20008.5 20008.5 0.500000 105404 8.705655 2.213301 1.368835 131507 131844 130894 134759 128004 129673 130927
20009 20009 0.500000 106449 8.699740 2.170513 1.302372 133484 132806 132702 135936 128995 130307 131846
20009.5 20009.5 0.500000 105684 8.698708 2.187028 1.275771 132569 132498 131213 135129 127758 129338 130808
20009.9 20010 0.500000 104145 8.693491 2.252312 1.278976 130459 129895 129062 132753 126187 128100 128929
20010.4 20010.5 0.500000 101708 8.690764 2.359417 1.303069 127153 126857 126830 129689 123033 124828 125526
20010.9 20011 0.500000 98552.6 8.683577 2.489172 1.337873 122716 123010 122183 125517 119496 121076 121791
20011.5 20011.5 0.500000 95504.6 8.682021 2.620535 1.374363 119966 118565 118832 121448 115420 116740 118203
20011.9 20012 0.500000 92469.7 8.681845 2.743316 1.402000 115477 115408 115041 117713 111626 113661 113882
20012.5 20012.5 0.500000 89952.3 8.682625 2.845848 1.415057 112287 111889 112463 114402 109172 110025 110785
20013 20013 0.500000 88303.4 8.675621 2.923312 1.410590 110337 109946 109279 112587 106836 108027 109074
20013.5 20013.5 0.500000 86898.7 8.670551 2.969447 1.388565 108301 107849 108920 109590 105778 105986 107035
20014 20014 0.500000 86600.5 8.696125 2.998489 1.357248 108670 107714 107293 110935 105562 106365 106549
20014.5 20014.5 0.500000 86741.1 8.694513 2.995267 1.305094 109024 107670 108338 110741 105472 106350 106576
20015 20015 0.500000 87352.4 8.692679 2.969151 1.250671 109314 108441 108898 111947 105796 106686 108244
20015.5 20015.5 0.500000 88318.5 8.687635 2.924266 1.187449 110468 109843 110268 112851 107016 107886 108947
20016 20016 0.500000 89734.6 8.682855 2.866427 1.124433 111965 111641 112048 114258 109013 109677 110550
20016.5 20016.5 0.500000 91443.4 8.680088 2.798398 1.062712 114221 113923 114046 116575 110931 111504 112537
20017 20017 0.500000 93320.9 8.678365 2.710279 0.998758 116815 116035 116157 118636 113285 114134 114810
20017.5 20017.5 0.500000 95689.2 8.677930 2.621200 0.938801 119828 119186 118349 122165 115676 116899 118280
20018 20018 0.500000 98162.9 8.674628 2.514189 0.883684 122337 121676 121995 124964 119007 120013 121534
20018.5 20018.5 0.500000 101253 8.675567 2.389961 0.823551 126083 125806 125778 128931 122644 123795 125394
20019 20019 0.500000 104241 8.668339 2.265073 0.770638 129995 129856 129289 132201 125757 127773 128727
20019.5 20019.5 0.500000 107871 8.663562 2.132345 0.715597 134726 134541 133537 137317 130523 130916 132991
20019.9 20020 0.500000 111048 8.662029 1.992237 0.667882 138654 138055 137454 141330 134678 134653 137074
20020.5 20020.5 0.500000 114539 8.658679 1.840181 0.615876 142728 142700 141786 145110 138201 140435 140794
20021 20021 0.500000 118420 8.655153 1.701134 0.570611 146943 147073 146593 150657 142520 145238 145917
20021.5 20021.5 0.500000 121646 8.657954 1.562676 0.527847 152494 151093 149355 154813 146482 149206 149765
20021.9 20022 0.500000 125234 8.652756 1.431926 0.486156 156394 155396 154024 159264 150752 153125 154662
20022.5 20022.5 0.500000 128765 8.648179 1.301226 0.446299 160572 159510 158783 163225 154298 158465 158728
20023 20023 0.500000 131708 8.648286 1.197120 0.417007 163986 163641 161168 167395 158038 161733 163091
20023.5 20023.5 0.500000 134000 8.646804 1.099853 0.387676 166791 166813 164720 169540 161444 164025 165339
20024 20024 0.500000 136255 8.644275 1.020530 0.363442 169687 169281 167525 173046 163676 166859 167748
20024.5 20024.5 1.000000 138207 17.2815 1.906842 0.684567 345067 342498 338908 350933 331410 338274 341341
20025.5 20025.5 1.000000 140746 17.2777 1.734302 0.629134 350364 349188 343960 357165 337826 344850 348419
20026.5 20026.5 1.000000 141711 17.2671 1.662027 0.601751 353360 351651 345846 359194 340339 347320 349234
20027.5 20027.5 1.000000 141641 17.2605 1.661255 0.596693 352296 350556 345963 359363 339557 347062 349996
20028.6 20028.6 1.000000 141135 17.2504 1.702347 0.604335 350738 349656 345628 357453 337291 345543 348328
20029.7 20029.6 1.000000 140513 17.2456 1.751916 0.615530 349633 347668 344286 356537 335629 342885 346600
20030.7 20030.7 1.000000 140067 17.2315 1.777621 0.620735 347315 348143 341889 354289 334336 341856 345737
20031.8 20031.8 1.000000 140357 17.2237 1.766308 0.614909 348560 347294 342751 355528 335776 341964 345590
20032.9 20032.9 1.000000 141144 17.2144 1.712061 0.595177 349968 348772 344872 357124 337343 344069 347560
20034 20034.1 1.000000 142629 17.2113 1.619657 0.562826 354463 352302 348910 360734 339980 347778 350659
20035.2 20035.2 1.000000 144442 17.2024 1.502578 0.521156 358463 356622 352705 363903 344540 352661 355854
20036.4 20036.4 1.000000 146469 17.1821 1.381952 0.477113 363127 361586 356680 369275 349385 357109 359482
20037.6 20037.6 1.000000 147974 17.1761 1.280654 0.437484 367409 364751 360183 372248 352718 360592 363727
20038.8 20038.8 1.000000 149689 17.1596 1.197181 0.404041 371320 368718 363298 376931 356193 364406 367729
20040.1 20040 1.000000 150580 17.1586 1.139450 0.379603 371620 370845 365430 379668 359731 365839 370604
20041.3 20041.3 1.000000 151064 17.1453 1.101201 0.361364 372790 372371 367261 379992 359465 367534 370621
20042.6 20042.5 1.000000 151919 17.1269 1.069667 0.346045 374489 373342 368342 383157 361128 368640 372806
20043.9 20043.8 1.000000 152266 17.1185 1.041456 0.331749 375340 374164 369118 382649 361298 369505 374507
20045.1 20045.2 1.000000 152764 17.1087 1.016714 0.318958 377001 376037 369360 383712 362114 371063 374308
20046.5 20046.5 1.000000 153029 17.1028 1.004319 0.310885 377940 376045 370659 384387 361969 371821 374412
20047.8 20047.8 1.000000 152829 17.086 1.013693 0.313345 376238 374493 369302 383996 361789 370783 374646
20049.2 20049.2 1.000000 152169 17.0749 1.050706 0.328510 374089 373061 367618 381482 360262 368850 372910
20050.6 20050.6 1.000000 151126 17.0634 1.110978 0.355230 371236 371371 365854 377659 357690 365318 369602
20052 20052 1.000000 150002 17.0548 1.178646 0.387047 368571 366749 363212 376009 354992 362537 366189
20053.4 20053.4 1.000000 149142 17.0414 1.234251 0.416059 366674 365216 359717 373285 352707 360072 363919
20054.9 20054.8 1.000000 148602 17.0335 1.279093 0.441374 364254 364680 357394 371797 351619 358954 362524
20056.3 20056.3 1.000000 147966 17.0213 1.310845 0.458994 363772 361752 356469 369133 349116 357656 360679
20057.8 20057.8 1.000000 147353 17.0106 1.338736 0.473422 361403 359921 355996 369057 347340 355717 357124
20059.3 20059.3 1.000000 146988 16.998 1.366849 0.484594 359827 358746 354391 366603 345662 355588 357679
20060.8 20060.8 1.000000 146344 16.9869 1.394333 0.493306 358822 355827 352817 365246 344515 352976 355736
20062.3 20062.3 1.000000 146135 16.9743 1.420638 0.499291 357297 356408 352109 364199 344216 351430 354877
20063.9 20063.9 1.000000 145604 16.9623 1.445162 0.503757 355212 355013 350390 362284 342105 350893 353868
20065.4 20065.5 1.000000 145382 16.9484 1.470635 0.507925 354986 352827 350323 361947 342370 348783 352766
20067.1 20067.1 1.000000 144917 16.9347 1.498486 0.515458 353362 352905 347354 360212 341237 348149 350901
20068.8 20068.7 1.000000 144303 16.9196 1.533444 0.527440 351959 350352 346177 357463 340261 346682 348660
20070.4 20070.3 1.000000 143718 16.9044 1.581433 0.545246 350760 348608 344831 356118 337483 345306 346367
20072 20072 1.000000 142747 16.8872 1.640581 0.568467 347766 345268 342558 353915 334063 342359 344670
20073.7 20073.7 1.000000 141709 16.8766 1.705846 0.595460 344322 342679 339969 351454 332754 338826 341559
20075.4 20075.3 1.000000 140835 16.8702 1.765547 0.620080 342753 341195 337205 348141 329796 337386 339438
20077.1 20077 1.000000 140084 16.8587 1.808522 0.638765 340458 339143 335594 346268 328192 334594 337380
20078.8 20078.8 1.000000 139796 16.8456 1.831563 0.649082 339588 337876 334319 346320 326844 332701 337292
20080.5 20080.5 1.000000 139869 16.8247 1.840277 0.651098 339291 338624 333610 345247 326653 333900 335930
20082.3 20082.3 1.000000 139714 16.8147 1.842131 0.646489 338412 336946 333824 345142 326485 332574 335868
20084.1 20084.1 1.000000 139816 16.8046 1.844840 0.638713 338770 336947 333994 344258 326305 332893 336389
20085.9 20085.9 1.000000 139550 16.7827 1.856648 0.632499 337523 336407 332627 344215 324673 332094 334481
20087.8 20087.7 1.000000 139372 16.7676 1.871417 0.627219 336706 335569 331518 342851 325140 331331 333822
20089.6 20089.5 1.000000 139488 16.76 1.881059 0.623519 336238 336076 332014 343432 325004 331012 334042
20091.4 20091.4 1.000000 139534 16.7408 1.874790 0.619229 336784 335924 332057 342934 324084 331154 332973
20093.3 20093.3 1.000000 139799 16.7219 1.850620 0.614976 336793 335712 332015 342940 325171 331123 333961
20095.2 20095.2 1.000000 140639 16.7073 1.812899 0.611166 338561 337593 333631 344421 327738 332318 335423
20097.1 20097.1 1.000000 141169 16.6995 1.768294 0.607285 340479 337813 333472 346240 327982 333834 337623
20099 20099 1.000000 141928 16.6855 1.726802 0.604041 341570 339272 335735 347580 329678 335521 338779
20101 20101 1.000000 142299 16.6668 1.690780 0.599165 341638 340547 336122 347963 329803 336086 339509
20103 20103 1.000000 143109 16.6225 1.657479 0.591552 342581 340794 338447 349496 330137 336846 340522
20105 20105 1.000000 143691 16.6327 1.631903 0.582215 344870 342576 340000 349909 333032 338236 341354
20107 20107 1.000000 144056 16.6209 1.604753 0.570369 345416 342717 339728 351538 332891 340388 341663
20109 20109 1.000000 144415 16.6022 1.578266 0.558854 345591 344495 339477 351720 333274 339952 343095
20111.1 20111.1 1.000000 144727 16.5882 1.558604 0.550776 346188 344559 341465 351799 333092 340391 343266
20113.1 20113.2 1.000000 144979 16.5753 1.549429 0.545929 347649 344217 341073 353515 333118 341017 342486
20115.3 20115.2 1.000000 145187 16.5581 1.548717 0.544970 346521 345369 341096 351800 334295 340722 344221
20117.4 20117.3 1.000000 145301 16.5452 1.551031 0.545901 346305 344347 340991 352815 334067 340977 344529
20119.5 20119.5 1.000000 145170 16.5241 1.552519 0.545027 346635 344391 340542 351838 333035 339546 342810
20121.7 20121.6 1.000000 145396 16.5082 1.544679 0.540260 346022 344156 341004 352344 333366 339984 343348
20123.8 20123.8 1.000000 145730 16.4895 1.527223 0.530481 346901 345506 340498 352880 333643 340325 343259
20126 20126 1.000000 146098 16.4784 1.506000 0.518819 346686 345794 342072 353807 333922 341112 344065
20128.2 20128.2 1.000000 146370 16.4552 1.484651 0.506903 347191 345582 342362 353757 334523 340503 344639
20130.4 20130.4 1.000000 146888 16.4387 1.467062 0.497488 348434 346614 342027 354905 336455 341524 344688
20132.6 20132.7 1.000000 146884 16.4178 1.456960 0.492225 347498 345602 341877 353776 335381 342275 345099
20134.9 20134.9 1.000000 147178 16.398 1.454174 0.493739 348629 346438 342280 353947 334989 341875 345265
20137.2 20137.2 1.000000 146880 16.3791 1.461146 0.500049 346985 345031 341818 352345 333324 341696 344564
20139.6 20139.5 1.000000 146867 16.358 1.473164 0.509734 347391 344578 341206 352564 332798 340286 343624
20141.9 20141.8 1.000000 146606 16.3477 1.483828 0.520256 346165 343738 339339 351516 332985 339590 343342
20144.2 20144.2 1.000000 146648 16.3808 1.495934 0.531320 347432 344445 340035 352853 333643 340112 343703
20146.5 20146.5 1.000000 146515 16.365 1.501921 0.541096 346286 343598 339961 352517 332217 339719 343412
20148.9 20148.9 1.000000 146459 16.3401 1.508417 0.549394 344425 343833 339698 351491 332298 339297 342110
20151.3 20151.3 1.000000 146451 16.3218 1.520182 0.556999 343896 343556 339193 351452 331213 339407 341629
20153.7 20153.7 1.000000 146201 16.3025 1.532744 0.564028 343667 341990 337885 350748 331007 337547 340587
20156.1 20156.1 1.000000 146086 16.2826 1.548115 0.570336 342645 341661 336873 349529 330956 337005 339983
20158.6 20158.6 1.000000 145706 16.2644 1.562941 0.577201 341630 340405 336317 348241 329045 336157 338025
20161.1 20161 1.000000 145467 16.2484 1.582377 0.583547 341099 339451 335640 346194 328674 334990 337550
20163.5 20163.5 1.000000 145097 16.2234 1.600879 0.589314 339669 338341 334076 344891 326580 333488 336918
20166 20166 1.000000 144798 16.1986 1.620353 0.592808 338298 336145 332946 344070 326100 331563 336396
20168.5 20168.6 1.000000 144533 16.1782 1.641001 0.596667 336931 335867 331546 343844 325430 330829 333834
20171.1 20171.1 1.000000 144187 16.1567 1.659870 0.600294 336291 334420 330959 341004 324031 329574 333304
20173.7 20173.7 1.000000 144319 16.1444 1.676590 0.603953 335860 334953 331336 340990 323168 330726 332912
20176.3 20176.3 1.000000 143931 16.1071 1.685346 0.606294 333890 332847 329088 340355 322012 328160 331961
20178.9 20178.9 1.000000 143904 16.1003 1.691833 0.608338 333996 332874 329013 339463 321963 328384 331210
20181.5 20181.5 1.000000 143929 16.0715 1.694281 0.610547 333142 331880 328637 339993 321087 327290 331125
20184.1 20184.2 1.000000 144231 16.0455 1.692595 0.608830 333053 331650 328793 338832 321746 328845 331345
20186.8 20186.8 1.000000 144138 16.0279 1.689331 0.603129 333189 331244 328568 338800 321578 327470 329379
20189.5 20189.5 1.000000 144267 16.007 1.686315 0.593173 332848 330656 327949 338159 320906 327680 331077
20192.2 20192.2 1.000000 144479 15.9877 1.684796 0.582557 332590 330726 328465 339656 321235 327330 329876
20194.9 20194.9 1.000000 144313 15.9633 1.687954 0.575715 331690 331108 328059 337803 319531 326462 329057
20197.7 20197.7 1.000000 144343 15.9407 1.690007 0.572618 331258 330153 326996 337668 319560 326191 329096
20200.4 20200.4 1.000000 144365 15.9179 1.690837 0.574436 330431 329762 326667 337987 319786 324861 328496
20203.1 20203.2 1.000000 144537 15.8935 1.687879 0.580332 331016 329817 325799 337902 318894 326180 327589
20206 20206 1.000000 144757 15.8716 1.684195 0.590650 330691 329872 325986 337735 319452 324986 328803
20208.8 20208.8 1.000000 144811 15.8525 1.679972 0.604351 330873 330123 325519 336838 319238 325367 327670
20211.7 20211.6 1.000000 144783 15.8276 1.674568 0.619493 330774 328697 325391 335949 318011 325328 327415
20214.5 20214.5 1.000000 145071 15.7995 1.672860 0.634317 330081 329158 325896 336459 318612 324592 327248
20217.4 20217.3 1.000000 145024 15.7756 1.669264 0.645191 330357 328780 324896 334669 317198 324518 327426
20220.2 20220.2 1.000000 145232 15.7527 1.666957 0.649723 329868 329023 324998 334714 317929 324823 326443
20223.1 20223.2 1.000000 145268 15.7318 1.664857 0.646899 329302 327370 325269 335574 318518 322923 326369
20226.1 20226.1 1.000000 145464 15.7134 1.662654 0.640697 329530 327162 324825 335915 317557 323863 326894
20229 20229 1.000000 145453 15.6776 1.658919 0.633601 328935 327360 324342 334259 316668 322347 326442
20232 20232 1.000000 145760 15.6615 1.652167 0.627654 329706 326949 323723 334163 317227 325124 325918
20234.9 20235 1.000000 146019 15.6352 1.641197 0.622430 329769 327441 323545 334819 318010 323584 325868
20237.9 20238 1.000000 146250 15.6086 1.627191 0.615535 328459 327007 324897 334698 317436 324013 326248
20241.4 20241 1.000000 146544 15.5692 1.612288 0.606447 328667 327984 324346 333805 317217 323508 326045
20243.9 20244 1.000000 146833 15.5491 1.604851 0.599518 329456 328485 325013 333054 316598 323855 326662
20247.7 20247.1 1.000000 146864 15.5184 1.596406 0.589626 328800 327331 323741 333371 315818 323158 326880
20250.3 20250.2 1.000000 147255 15.4893 1.591590 0.581136 329587 327058 324323 334532 317049 323496 324826
20253.7 20253.3 1.000000 147091 15.4678 1.589388 0.573547 328559 325831 323796 332868 316143 322636 325330
20256.5 20256.4 1.000000 147325 15.4378 1.588615 0.569338 327326 325995 324152 334139 316101 321967 324685
20259.6 20259.5 1.000000 147236 15.4147 1.590240 0.567915 327731 325615 322864 332482 315836 321161 323909
20262.8 20262.7 1.000000 147300 15.3879 1.592456 0.567915 325366 325205 323507 332473 315403 320686 324006
20265.9 20265.9 1.000000 147374 15.3564 1.593843 0.568324 326803 324384 321312 331469 315515 320466 323195
20269.1 20269.1 1.000000 147702 15.3332 1.594782 0.569258 326944 324904 321634 330842 314324 320982 325122
20272.3 20272.3 1.000000 147310 15.3034 1.597665 0.570496 325221 324222 320231 330285 313123 318619 322633
20275.5 20275.5 1.000000 147256 15.2749 1.604229 0.573883 324761 322342 319278 328754 313500 318066 322612
20278.8 20278.8 1.000000 147286 15.2633 1.610779 0.579850 323867 323223 319523 329530 312500 318174 321248
20282.1 20282 1.000000 147257 15.232 1.616863 0.586844 323170 321431 318754 329085 311005 318430 321134
20285.3 20285.3 1.000000 147325 15.2047 1.618997 0.594243 323109 321904 317958 328813 310991 317325 319945
20288.7 20288.7 1.000000 147277 15.1785 1.619803 0.603238 322072 320156 317647 327413 311352 316856 319957
20292 20292 1.000000 147309 15.1529 1.620103 0.612008 321709 319900 316291 327480 310675 316668 319433
20295.4 20295.3 1.000000 147484 15.1281 1.620147 0.618475 321848 319802 317076 327391 310314 316216 318516
20298.7 20298.7 1.000000 147326 15.1074 1.621843 0.624094 320116 320239 316141 325830 309652 315577 318161
20302.2 20302.1 1.000000 147555 15.0777 1.622696 0.628996 320495 319116 316629 326617 309253 315316 317352
20305.5 20305.5 1.000000 147476 15.0472 1.622170 0.632468 320267 318767 314955 324233 308221 315190 317455
20308.9 20308.9 1.000000 147530 15.0215 1.623568 0.635619 319804 318030 315174 324295 308042 314525 316249
20312.4 20312.3 1.000000 147689 14.9951 1.626718 0.633949 318889 318312 314714 324751 308348 313123 316476
20315.8 20315.8 1.000000 147637 14.9595 1.629485 0.629492 318726 316404 313617 323835 307213 313338 315447
20319.3 20319.3 1.000000 147545 14.9344 1.634421 0.624625 317407 316514 312756 322755 307050 312183 314829
20322.8 20322.8 1.000000 147607 14.9077 1.638617 0.621122 316299 315433 313591 322077 305874 312170 315035
20326.4 20326.3 1.000000 147689 14.8835 1.643186 0.617014 317284 315635 311348 322777 305588 310987 314512
20329.9 20329.8 1.000000 147570 14.8556 1.643858 0.612877 316088 314321 311477 321594 304512 310697 313549
20333.5 20333.4 1.000000 147702 14.8336 1.644738 0.609517 316784 314913 311617 321677 303998 310019 311945
20337 20337 1.000000 147785 14.8065 1.647342 0.607092 315077 313928 311062 320282 304316 310650 312859
20340.6 20340.6 1.000000 147642 14.7773 1.648355 0.606042 315127 313398 310536 319073 303186 308792 311639
20344.2 20344.2 1.000000 147641 14.7437 1.647427 0.605021 313451 312599 310211 318917 302780 308394 310436
20347.8 20347.8 1.000000 147904 14.7202 1.644261 0.603879 314055 312881 308993 318528 302771 307806 312139
20351.5 20351.5 1.000000 148060 14.6938 1.640272 0.604791 313744 312443 309068 318684 302751 308456 310418
20355.2 20355.2 1.000000 148176 14.6936 1.640393 0.607553 314721 312444 308789 318815 302397 309092 310983
20358.9 20358.8 1.000000 148264 14.6806 1.638585 0.610992 313793 312125 310008 318396 303192 308305 310789
20362.6 20362.5 1.000000 148434 14.6483 1.632989 0.610505 313283 311653 308379 318166 303338 307868 311622
20366.3 20366.3 1.000000 148496 14.6203 1.628656 0.609191 312979 310512 309617 318092 303059 306915 309874
20370 20370 1.000000 148716 14.5918 1.622563 0.608539 313069 312057 308602 317360 301841 306473 310636
20373.8 20373.8 1.000000 149030 14.557 1.616598 0.609982 312854 311239 308256 318523 300852 307628 310079
20377.6 20377.6 1.000000 148962 14.5381 1.612851 0.613448 312315 310953 307713 317233 301053 306815 309541
20381.4 20381.4 1.000000 149317 14.5065 1.609654 0.617642 312283 309777 308077 317848 301777 306303 309996
20385.2 20385.2 1.000000 149456 14.4778 1.606276 0.619574 312520 309610 308045 316638 301308 305992 309692
20389.1 20389 1.000000 149417 14.445 1.602939 0.618620 310838 309636 306516 316999 300398 304832 309109
20392.9 20392.9 1.000000 149443 14.4136 1.601723 0.617430 311200 308238 306844 315897 299190 304946 307700
20396.8 20396.8 1.000000 149690 14.3898 1.600787 0.617499 310998 310104 305594 315530 298977 305208 307600
20400.7 20400.7 1.000000 149896 14.3556 1.600253 0.617932 309791 308720 305965 315596 299688 305079 307000
20404.6 20404.6 1.000000 149903 14.3297 1.600366 0.619468 309879 308542 305035 314439 298725 304543 306909
20408.6 20408.5 1.000000 150025 14.3084 1.599170 0.619879 309705 307803 305303 313978 298856 303719 307261
20412.5 20412.5 1.000000 150138 14.2758 1.596805 0.617725 308947 307388 304579 314274 297909 303374 306876
20416.5 20416.5 1.000000 150166 14.2416 1.594860 0.613613 307794 307479 303517 312793 297177 303407 306440
20420.6 20420.5 1.000000 150249 14.212 1.592083 0.610594 306861 307050 303650 313101 296683 303025 304964
20424.6 20424.5 1.000000 150427 14.1819 1.590692 0.608707 306429 306287 303356 312802 296938 302289 305239
20428.6 20428.5 1.000000 150446 14.1588 1.590130 0.609452 307168 305294 302159 312164 296559 302328 304459
20432.6 20432.6 1.000000 150500 14.1251 1.590246 0.611437 306436 304752 302929 311482 294670 301672 303896
20436.7 20436.7 1.000000 150711 14.0939 1.590660 0.612400 306262 304634 302377 310880 295611 300571 303771
20440.8 20440.7 1.000000 150732 14.049 1.591303 0.612760 304983 303159 301060 310187 295198 300579 302469
20444.9 20444.8 1.000000 150581 14.0377 1.593051 0.612798 304550 304040 300484 309842 293881 299310 301695
20449 20449 1.000000 150641 14.0072 1.594130 0.610755 304454 302382 299471 309389 294235 298919 301214
20453.2 20453.1 1.000000 150770 13.9759 1.594419 0.608458 303340 301606 299906 307938 293541 299731 301086
20457.3 20457.3 1.000000 150900 13.94 1.595078 0.606987 303162 302467 298715 308196 292621 297938 300438
20461.5 20461.5 1.000000 150999 13.9139 1.595821 0.608122 303449 302070 298211 308569 291952 296937 299800
20465.7 20465.7 1.000000 151041 13.8799 1.597438 0.610014 302157 301001 298818 306799 291306 297147 299202
20470 20469.9 1.000000 151175 13.8502 1.598718 0.612863 301718 300562 298301 306146 291867 295888 299322
20474.2 20474.2 1.000000 151157 13.8187 1.600873 0.615152 301431 300258 296273 306338 289844 296005 298647
20478.4 20478.4 1.000000 151083 13.7855 1.602621 0.617935 300275 298198 296425 304807 290521 295497 297032
20482.7 20482.7 1.000000 151320 13.7534 1.602237 0.621259 299759 298255 296617 304962 290091 294898 296585
20487 20487 1.000000 151352 13.7239 1.602293 0.625134 299498 297685 295390 303457 289233 294688 297180
20491.3 20491.3 1.000000 151242 13.6893 1.600615 0.626506 297749 297129 294395 303267 289408 293373 295067
20495.7 20495.7 1.000000 151598 13.6556 1.599091 0.626205 298476 297314 294719 302715 288033 293166 295735
20500 20500 1.000000 151548 13.6264 1.598067 0.625908 298362 296493 293510 301618 288035 292586 294459
20504.4 20504.4 1.000000 151684 13.5928 1.596428 0.624080 297760 295558 293767 301398 286855 291435 295038
20508.8 20508.8 1.000000 151698 13.5571 1.592903 0.622841 296254 295618 292225 301455 286426 291097 293503
20513.3 20513.2 1.000000 151908 13.5185 1.590191 0.622208 295248 294744 292736 300449 286074 290923 293399
20517.7 20517.6 1.000000 151963 13.4735 1.587350 0.621070 294763 293857 290559 299984 284838 289946 293522
20522.1 20522.1 1.000000 152142 13.3813 1.578483 0.618522 293550 291498 290493 297509 283495 288918 290387
20526.5 20526.5 1.000000 152862 13.0254 1.537726 0.604372 286602 285505 283708 291668 276934 282532 284146
20531.1 20531 1.000000 152487 13.4275 1.587199 0.624620 294860 293798 291262 300143 285107 290269 292070
20535.6 20535.5 1.000000 152443 13.4051 1.586819 0.625178 294933 293215 289808 299717 284323 289722 291786
20540.1 20540.1 1.000000 152518 13.3653 1.584462 0.624321 293842 292547 290178 298939 283615 287746 291575
20544.6 20544.6 1.000000 152830 13.3284 1.580728 0.622534 293161 291433 289762 298451 283638 289732 290813
20549.3 20549.2 1.000000 152795 13.2939 1.578522 0.620010 292810 291207 288527 297637 282765 288115 290191
20553.8 20553.8 1.000000 152895 13.2601 1.577006 0.619221 292716 290810 289199 296938 281367 287392 288982
20558.4 20558.4 1.000000 153123 13.2214 1.573254 0.619386 291480 290006 287615 296814 282677 286461 289446
20563 20563 1.000000 153263 13.1808 1.570008 0.618901 291092 290633 287256 295935 280415 286679 288125
20567.7 20567.7 1.000000 153340 13.1425 1.567218 0.617923 289956 288609 286799 295207 281712 285735 287258
20572.4 20572.3 1.000000 153440 13.1055 1.562971 0.616364 289453 288800 285848 294510 280485 284617 287203
20577 20577 1.000000 153925 12.8234 1.529962 0.603093 284241 282648 280896 289366 274931 279352 282408
20581.7 20581.7 1.000000 153770 13.0254 1.555596 0.611507 289472 287633 285375 293841 278669 283273 284649
20586.5 20586.4 1.000000 153865 13.0301 1.557651 0.610208 288363 287732 284987 292897 279246 285212 286432
20591.2 20591.2 1.000000 154067 12.9956 1.555008 0.606921 288518 286499 285897 292833 278900 283760 285791
20596 20595.9 1.000000 154184 12.9589 1.552342 0.605761 288813 286159 284049 292690 277756 283890 284688
20600.8 20600.7 1.000000 154093 12.9251 1.550490 0.607084 286740 285534 283997 291691 276918 282831 283959
20605.6 20605.5 1.000000 154391 12.8867 1.548532 0.609183 286576 285528 282799 291895 277122 281858 283816
20610.3 20610.3 1.000000 154619 12.8532 1.546858 0.612741 285186 285182 282794 291248 277776 281743 283418
20615.2 20615.1 1.000000 154506 12.8079 1.545070 0.615500 285046 283557 281669 290221 275719 280430 282250
20620.1 20620 1.000000 154727 12.7307 1.539379 0.616309 283550 283012 280593 288857 274418 278098 281250
20624.9 20624.9 1.000000 155114 12.5218 1.517258 0.608347 279963 278317 276566 284130 271189 274730 277416
20629.8 20629.8 1.000000 154906 12.725 1.545155 0.619444 283129 282278 281040 288300 275347 279388 281687
20634.8 20634.7 1.000000 155135 12.6835 1.545115 0.619643 282788 282730 280216 288612 273999 278514 280794
20639.7 20639.6 1.000000 155073 12.6522 1.544298 0.621214 282659 281315 279730 287361 272379 277800 280767
20644.6 20644.5 1.000000 155261 12.6149 1.543212 0.622383 281423 281193 278757 286377 273284 277232 280339
20649.6 20649.5 1.000000 155376 12.5774 1.541980 0.622850 281732 280297 278685 284902 272453 277381 278785
20654.6 20654.5 1.000000 155389 12.537 1.540378 0.622195 280622 279201 277114 285089 271257 276417 278414
20659.6 20659.5 1.000000 155551 12.4968 1.538828 0.620074 279502 278747 277538 284920 271204 275324 276657
20664.5 20664.5 1.000000 155813 12.4524 1.537000 0.617853 278849 279147 276412 283703 270573 274271 277300
20669.7 20669.6 1.000000 155751 12.4007 1.533081 0.615814 277540 276980 275458 283411 268875 273895 275261
20674.6 20674.6 1.000000 156373 12.1505 1.505520 0.604860 274426 272496 270652 277735 264782 268826 271090
20679.7 20679.7 1.000000 155884 12.292 1.526946 0.613420 276186 274232 272811 280821 267514 271458 273105
20684.8 20684.8 1.000000 155906 12.3629 1.538641 0.619342 277375 277141 274977 281808 268447 272656 275055
20689.9 20689.9 1.000000 155865 12.3232 1.536805 0.618675 276018 275597 273543 281759 267757 271900 274178
20695.1 20695.1 1.000000 156187 12.281 1.535439 0.618417 276600 274542 273741 280860 267180 271035 274164
20700.2 20700.2 1.000000 156170 12.2436 1.533586 0.616858 275695 274364 272336 280034 266250 270669 272738
20705.5 20705.4 1.000000 156362 12.2047 1.531305 0.615809 274803 273453 271615 279316 265959 271003 272201
20710.6 20710.6 1.000000 156569 12.173 1.530988 0.615295 274509 273565 272329 278872 264526 269761 272350
20715.8 20715.8 1.000000 156649 12.137 1.529202 0.613999 273389 273008 270447 278123 265319 270004 270957
20721.1 20721 1.000000 156794 12.1028 1.526959 0.614084 273620 271611 270353 276618 265077 269091 271277
20726.3 20726.3 1.000000 156892 12.0659 1.525546 0.615154 272516 271310 270295 276649 265196 268172 268906
20731.6 20731.6 1.000000 157014 12.0559 1.527253 0.617502 273048 271416 269556 277671 263525 268302 269436
20736.9 20736.8 1.000000 157367 12.0171 1.523469 0.617595 271869 271299 269739 276916 263682 267239 270351
20742.3 20742.2 1.000000 157313 11.9863 1.521623 0.618361 271711 270667 268440 275730 261943 267952 269158