File: Data/Br/Br-K-KBr.xdi
# XDI/1.0 BlueSky/1.13.0a3 BMM/2024-2.0-py310-tiled
# Beamline.name: BMM (06BM) -- Beamline for Materials Measurement (NIST)
# Beamline.collimation: paraboloid mirror, 5 nm Rh on 30 nm Pt
# Beamline.xray_source: NSLS-II three-pole wiggler
# Beamline.focusing: not in use
# Beamline.harmonic_rejection: flat mirror, Pt stripe, pitch = 7.0 mrad relative to beam
# Beamline.software: Bluesky 1.13.0a4, Ophyd 1.9.0, DataBroker 2.0.0b45, Python 3.11.6, 2024-2.3-py311-tiled
# Detector.I0: 25 cm N2, NSLS2 IC
# Detector.It: 25 cm N2, NSLS2 IC
# Detector.Ir: 25 cm N2, NSLS2 IC
# Element.edge: K
# Element.symbol: Br
# Element.reference: Br
# Element.reference_material: bromophenol blue
# Facility.name: NSLS-II
# Facility.energy: 3.0
# Facility.GUP: 318519
# Facility.SAF: 316542
# Facility.cycle: 2025-2
# Facility.current: 400.5
# Facility.mode: top-off
# Mono.name: Si(111)
# Mono.d_spacing: 3.13553
# Mono.encoder_resolution: 5e-06
# Mono.angle_offset: 16.0812
# Mono.direction: forward
# Mono.scan_type: step
# Mono.scan_mode: pseudo channel cut
# Sample.name: ...
# Sample.prep: 2 abs. lengths in PEG pellet. Double kapton containment.
# Sample.SDD_position: 205.0
# Sample.x: 66.174
# Sample.y: 176.101
# Sample.wheel_slot: 20
# Sample.wheel_ring: outer
# Scan.edge_energy: 13473.7
# Scan.experimenters: Malin Dixon Wilkins, John Bussey, John Mccloy, Gavin Mccloy, Seonjin Kim, Maxwell Mccloy, John McCloy
# Scan.start_time: 2025-07-09T22:01:00
# Scan.end_time: 2025-07-09T22:08:46
# Scan.uid: 29d5cdc5-f55e-423d-bff1-1223d2e4601d
# Scan.transient_id: 32786
# Scan.plot_hint: ln(I0/It)  --  ln($5/$6)
# Column.1: energy eV
# Column.2: requested_energy eV
# Column.3: measurement_time seconds
# Column.4: xmu
# Column.5: I0 nA
# Column.6: Itrans nA
# Column.7: Irefer nA
# //////////////////////////////////////////////////////////
# ...
# ----------------------------------------------------------
# energy requested_energy measurement_time xmu I0 It Ir
13273.7 13273.7 0.500000 -0.702461 61.0754 30.2546 24.3181
13283.8 13283.7 0.500000 -0.700862 60.8924 30.2122 24.3113
13293.8 13293.7 0.500000 -0.699248 60.6989 30.1648 24.3004
13303.8 13303.7 0.500000 -0.697282 60.4839 30.1172 24.2902
13313.8 13313.7 0.500000 -0.695375 60.4291 30.1473 24.3442
13323.8 13323.7 0.500000 -0.693552 60.2433 30.1094 24.3379
13333.8 13333.7 0.500000 -0.691949 60.1047 30.0884 24.3518
13343.8 13343.7 0.500000 -0.690019 60.011 30.0995 24.3845
13353.8 13353.7 0.500000 -0.688716 59.9151 30.0906 24.3993
13363.7 13363.7 0.500000 -0.687205 59.7458 30.0509 24.3982
13373.7 13373.7 0.500000 -0.685300 59.5834 30.0264 24.4
13383.7 13383.7 0.500000 -0.684027 59.4532 29.999 24.4001
13393.6 13393.7 0.500000 -0.682788 59.3176 29.9676 24.395
13403.7 13403.7 0.500000 -0.681701 59.1846 29.9329 24.3866
13413.7 13413.7 0.500000 -0.681321 59.0758 29.8893 24.3688
13423.7 13423.7 0.500000 -0.680921 58.9297 29.8273 24.3226
13433.7 13433.7 0.500000 -0.681936 58.7605 29.7115 24.2294
13443.7 13443.7 0.500000 -0.685098 58.6115 29.5426 24.0686
13445.7 13445.7 0.500000 -0.686014 58.5794 29.4994 24.023
13447.7 13447.7 0.500000 -0.687323 58.527 29.4344 23.9544
13449.7 13449.7 0.500000 -0.689135 58.5139 29.3746 23.894
13451.7 13451.7 0.500000 -0.691106 58.4965 29.308 23.8258
13453.7 13453.7 0.500000 -0.693257 58.4616 29.2276 23.7362
13455.7 13455.7 0.500000 -0.695896 58.4286 29.1341 23.6292
13457.7 13457.7 0.500000 -0.699378 58.403 29.0201 23.4993
13459.6 13459.7 0.500000 -0.704132 58.3713 28.8668 23.3253
13461.7 13461.7 0.500000 -0.710175 58.3364 28.6757 23.1028
13463.7 13463.7 0.500000 -0.718163 58.302 28.4308 22.8132
13464.1 13464.2 0.500000 -0.720401 58.2927 28.3627 22.7315
13464.6 13464.7 0.500000 -0.723179 58.2901 28.2828 22.6353
13465.1 13465.2 0.500000 -0.726001 58.2753 28.1959 22.5267
13465.6 13465.7 0.500000 -0.729337 58.2749 28.1018 22.4104
13466.1 13466.2 0.500000 -0.733129 58.2654 27.9909 22.2758
13466.6 13466.7 0.500000 -0.737069 58.2582 27.8774 22.1314
13467.2 13467.2 0.500000 -0.741913 58.2468 27.7373 21.9612
13467.7 13467.7 0.500000 -0.746711 58.2377 27.6002 21.7834
13468.1 13468.2 0.500000 -0.752340 58.2245 27.439 21.5844
13468.7 13468.7 0.500000 -0.758521 58.1988 27.2579 21.3547
13469.2 13469.2 0.500000 -0.765361 58.1587 27.0535 21.0913
13469.7 13469.7 0.500000 -0.773075 58.1379 26.836 20.8085
13470.2 13470.2 0.500000 -0.782201 58.1345 26.5906 20.4779
13470.7 13470.7 0.500000 -0.792891 58.1447 26.3125 20.1049
13471.2 13471.2 0.500000 -0.805607 58.1619 25.9877 19.6445
13471.7 13471.7 0.500000 -0.820491 58.1744 25.6093 19.0928
13472.2 13472.2 0.500000 -0.838926 58.1646 25.1372 18.4017
13472.7 13472.7 0.500000 -0.861649 58.1627 24.5717 17.5471
13473.2 13473.2 0.500000 -0.889687 58.1528 23.8883 16.4794
13473.7 13473.7 0.500000 -0.925616 58.144 23.0417 15.1529
13474.2 13474.2 0.500000 -0.973720 58.1374 21.9571 13.4918
13474.7 13474.7 0.500000 -1.036718 58.1272 20.6129 11.5737
13475.2 13475.2 0.500000 -1.120557 58.1177 18.9521 9.538406
13475.7 13475.7 0.500000 -1.233700 58.0986 16.9191 7.570664
13476.2 13476.2 0.500000 -1.381191 58.0714 14.5921 5.856985
13476.7 13476.7 0.500000 -1.572097 58.0279 12.0471 4.469449
13477.2 13477.2 0.500000 -1.811385 57.9913 9.477374 3.436992
13477.7 13477.7 0.500000 -2.079411 57.9448 7.243330 2.700990
13478.2 13478.2 0.500000 -2.351312 57.8587 5.510702 2.190332
13478.7 13478.7 0.500000 -2.570173 57.716 4.416565 1.871674
13479.2 13479.2 0.500000 -2.700644 57.5868 3.867656 1.709896
13479.7 13479.7 0.500000 -2.730298 57.5877 3.754705 1.666888
13480.2 13480.2 0.500000 -2.699896 57.672 3.876280 1.681148
13480.7 13480.7 0.500000 -2.653003 57.813 4.072309 1.700910
13481.2 13481.2 0.500000 -2.617679 57.9429 4.228211 1.693896
13481.7 13481.7 0.500000 -2.601168 58.0105 4.303616 1.654383
13482.2 13482.2 0.500000 -2.597643 58.0403 4.321032 1.604185
13482.7 13482.7 0.500000 -2.593355 58.0179 4.337926 1.572153
13483.2 13483.2 0.500000 -2.571229 57.9891 4.432781 1.585291
13483.7 13483.7 0.500000 -2.520569 57.9611 4.660872 1.661557
13484.2 13484.2 0.500000 -2.440468 57.957 5.049220 1.808507
13484.7 13484.7 0.500000 -2.322393 57.9707 5.683377 2.047256
13485.2 13485.2 0.500000 -2.204601 57.9806 6.394943 2.332699
13485.7 13485.7 0.500000 -2.101248 57.9843 7.091694 2.618588
13486.2 13486.2 0.500000 -2.021328 57.9813 7.681321 2.871420
13486.7 13486.7 0.500000 -1.987955 57.9762 7.941298 3.008018
13487.2 13487.2 0.500000 -1.995162 57.9657 7.882845 3.030341
13487.7 13487.7 0.500000 -2.034345 57.9547 7.578514 2.952342
13488.2 13488.2 0.500000 -2.089165 57.954 7.174148 2.829249
13488.7 13488.7 0.500000 -2.146744 57.9448 6.771667 2.699449
13489.2 13489.2 0.500000 -2.196254 57.929 6.442813 2.591379
13489.7 13489.7 0.500000 -2.236557 57.9226 6.187622 2.505663
13490.2 13490.2 0.500000 -2.270879 57.9123 5.977789 2.435438
13490.7 13490.7 0.500000 -2.297702 57.8895 5.817293 2.380831
13491.2 13491.2 0.500000 -2.316933 57.8547 5.703054 2.340231
13491.7 13491.7 0.500000 -2.327965 57.8233 5.637416 2.315348
13492.2 13492.2 0.500000 -2.331870 57.8191 5.615042 2.306083
13492.7 13492.7 0.500000 -2.330487 57.8226 5.623155 2.303530
13493.2 13493.2 0.500000 -2.328377 57.8411 5.636836 2.302664
13493.7 13493.7 0.500000 -2.328404 57.8497 5.637520 2.295519
13494.2 13494.2 0.500000 -2.331978 57.8508 5.617517 2.278382
13494.7 13494.7 0.500000 -2.340617 57.8416 5.568303 2.250942
13495.2 13495.2 0.500000 -2.353458 57.8333 5.496475 2.213618
13495.7 13495.7 0.500000 -2.367370 57.8269 5.419934 2.177346
13496.2 13496.2 0.500000 -2.379046 57.8236 5.356718 2.147389
13496.7 13496.7 0.500000 -2.383240 57.8124 5.333257 2.134555
13497.2 13497.2 0.500000 -2.377289 57.8045 5.364364 2.146349
13497.7 13497.7 0.500000 -2.360796 57.7976 5.452925 2.179491
13498.2 13498.2 0.500000 -2.336929 57.7737 5.582322 2.234272
13498.7 13498.7 1.000000 -2.307870 115.518 11.4909 4.607917
13499.7 13499.7 1.000000 -2.253344 115.443 12.127 4.886063
13500.7 13500.7 1.000000 -2.218305 115.434 12.5584 5.099862
13501.8 13501.7 1.000000 -2.210174 115.439 12.6615 5.186343
13502.8 13502.8 1.000000 -2.219853 115.418 12.5373 5.177845
13503.8 13503.8 1.000000 -2.233725 115.375 12.3599 5.141483
13504.9 13504.9 1.000000 -2.246200 115.338 12.2028 5.101132
13506 13506 1.000000 -2.258603 115.297 12.0481 5.058376
13507.2 13507.1 1.000000 -2.268793 115.263 11.9225 5.018220
13508.3 13508.3 1.000000 -2.275145 115.224 11.843 4.991037
13509.4 13509.4 1.000000 -2.277867 115.539 11.8431 4.990405
13510.6 13510.6 1.000000 -2.277066 115.487 11.8472 4.981341
13511.8 13511.8 1.000000 -2.274935 115.441 11.8678 4.969163
13513 13513 1.000000 -2.273421 115.396 11.8811 4.944008
13514.2 13514.2 1.000000 -2.272905 115.355 11.883 4.907515
13515.5 13515.5 1.000000 -2.275219 115.309 11.8508 4.855974
13516.8 13516.8 1.000000 -2.280499 115.255 11.7828 4.793727
13518 13518 1.000000 -2.285608 115.216 11.7189 4.741239
13519.4 13519.4 1.000000 -2.285875 115.173 11.7114 4.720309
13520.7 13520.7 1.000000 -2.279107 115.124 11.7858 4.743271
13522 13522 1.000000 -2.268098 115.075 11.9112 4.795986
13523.4 13523.4 1.000000 -2.258045 115.029 12.0268 4.851734
13524.8 13524.8 1.000000 -2.251599 114.974 12.0988 4.893923
13526.2 13526.2 1.000000 -2.247981 114.887 12.1335 4.922791
13527.6 13527.6 1.000000 -2.242837 114.817 12.1886 4.960817
13529.1 13529 1.000000 -2.231303 114.803 12.3285 5.034913
13530.5 13530.5 1.000000 -2.213693 114.737 12.5403 5.135544
13532 13532 1.000000 -2.195914 114.667 12.7575 5.238348
13533.5 13533.5 1.000000 -2.183329 114.568 12.908 5.312356
13535 13535 1.000000 -2.176713 114.337 12.9673 5.344611
13536.6 13536.5 1.000000 -2.175712 112.827 12.8089 5.288794
13538.1 13538.1 1.000000 -2.180616 113.289 12.7985 5.292543
13539.7 13539.7 1.000000 -2.183310 113.825 12.8244 5.308157
13541.3 13541.3 1.000000 -2.191708 113.991 12.7357 5.276852
13542.9 13542.9 1.000000 -2.201774 114.501 12.6646 5.251425
13544.6 13544.5 1.000000 -2.212618 114.463 12.5238 5.194515
13546.2 13546.2 1.000000 -2.221563 114.406 12.4062 5.147613
13547.9 13547.9 1.000000 -2.229275 114.344 12.3042 5.107971
13549.6 13549.5 1.000000 -2.234704 114.289 12.2316 5.081687
13551.3 13551.2 1.000000 -2.235515 114.214 12.2137 5.079716
13553 13553 1.000000 -2.230718 114.117 12.262 5.104930
13554.7 13554.7 1.000000 -2.222422 113.958 12.3469 5.146905
13556.5 13556.5 1.000000 -2.213272 112.704 12.3233 5.145432
13558.3 13558.3 1.000000 -2.208455 112.88 12.4021 5.188388
13560.1 13560.1 1.000000 -2.201536 113.912 12.6025 5.282769
13561.9 13561.9 1.000000 -2.196287 113.893 12.6667 5.319818
13563.7 13563.8 1.000000 -2.191755 113.793 12.713 5.351286
13565.6 13565.6 1.000000 -2.187459 113.177 12.6986 5.354502
13567.5 13567.5 1.000000 -2.183739 113.536 12.7863 5.399645
13569.4 13569.4 1.000000 -2.179055 113.643 12.8586 5.437319
13571.3 13571.3 1.000000 -2.175497 113.508 12.8891 5.453233
13573.3 13573.2 1.000000 -2.171491 112.389 12.8132 5.424583
13575.2 13575.2 1.000000 -2.170079 112.375 12.8297 5.435708
13577.2 13577.2 1.000000 -2.167127 113.424 12.9877 5.501679
13579.2 13579.2 1.000000 -2.167217 113.379 12.9814 5.497369
13581.2 13581.2 1.000000 -2.170490 113.313 12.9315 5.476248
13583.2 13583.2 1.000000 -2.175907 113.236 12.8529 5.443242
13585.3 13585.3 1.000000 -2.182035 113.164 12.7662 5.406284
13587.4 13587.4 1.000000 -2.186651 113.054 12.695 5.377342
13589.4 13589.4 1.000000 -2.188997 112.802 12.6371 5.354277
13591.5 13591.5 1.000000 -2.190103 112.13 12.5479 5.317672
13593.7 13593.7 1.000000 -2.189700 112.227 12.5639 5.327565
13595.8 13595.8 1.000000 -2.192436 111.379 12.4349 5.279280
13598 13598 1.000000 -2.192636 112.854 12.597 5.352229
13600.2 13600.2 1.000000 -2.192832 112.804 12.589 5.354778
13602.4 13602.4 1.000000 -2.191247 112.694 12.5966 5.360963
13604.6 13604.6 1.000000 -2.187670 112.593 12.6304 5.378527
13606.8 13606.9 1.000000 -2.183293 112.577 12.684 5.401000
13609.1 13609.1 1.000000 -2.178643 112.508 12.7354 5.422127
13611.4 13611.4 1.000000 -2.174025 112.414 12.7836 5.439696
13613.7 13613.7 1.000000 -2.170101 112.321 12.8232 5.451576
13616 13616 1.000000 -2.166486 112.3 12.8673 5.465287
13618.4 13618.4 1.000000 -2.163185 112.215 12.9001 5.474586
13620.7 13620.7 1.000000 -2.160911 112.092 12.9153 5.478611
13623.1 13623.1 1.000000 -2.160025 112.083 12.9257 5.481098
13625.5 13625.5 1.000000 -2.159356 112.019 12.9269 5.483741
13627.9 13627.9 1.000000 -2.158742 111.933 12.925 5.484034
13630.4 13630.3 1.000000 -2.158730 111.792 12.9088 5.481274
13632.8 13632.8 1.000000 -2.158609 111.781 12.9092 5.488448
13635.3 13635.2 1.000000 -2.158675 111.714 12.9005 5.494654
13637.8 13637.7 1.000000 -2.158679 111.634 12.8912 5.499555
13640.3 13640.2 1.000000 -2.158589 111.563 12.8842 5.505174
13642.8 13642.8 1.000000 -2.158738 111.477 12.8723 5.508418
13645.4 13645.3 1.000000 -2.158438 111.399 12.8672 5.513108
13647.9 13647.9 1.000000 -2.158203 111.318 12.8608 5.517330
13650.5 13650.5 1.000000 -2.157214 111.188 12.8585 5.521881
13653.1 13653.1 1.000000 -2.155466 110.346 12.7835 5.494954
13655.7 13655.7 1.000000 -2.154669 111.079 12.8787 5.542649
13658.4 13658.4 1.000000 -2.152056 111.086 12.9132 5.561934
13661 13661 1.000000 -2.149572 110.999 12.9351 5.577948
13663.7 13663.7 1.000000 -2.147227 110.909 12.9551 5.592856
13666.4 13666.4 1.000000 -2.145318 110.82 12.9694 5.606382
13669.2 13669.1 1.000000 -2.143139 110.736 12.9878 5.620430
13671.9 13671.9 1.000000 -2.141039 110.64 13.0038 5.632628
13674.6 13674.6 1.000000 -2.139173 110.565 13.0193 5.646456
13677.4 13677.4 1.000000 -2.136959 110.481 13.0382 5.657917
13680.2 13680.2 1.000000 -2.135047 110.389 13.0523 5.667967
13683 13683 1.000000 -2.133098 110.297 13.0669 5.677959
13685.9 13685.8 1.000000 -2.131639 110.212 13.0759 5.686347
13688.7 13688.7 1.000000 -2.130695 110.134 13.0789 5.689174
13691.6 13691.5 1.000000 -2.130278 110.055 13.075 5.691910
13694.5 13694.4 1.000000 -2.129558 110.319 13.1158 5.711901
13697.4 13697.4 1.000000 -2.129004 110.235 13.113 5.714763
13700.3 13700.3 1.000000 -2.128616 110.13 13.1057 5.713251
13703.2 13703.2 1.000000 -2.128054 110.067 13.1055 5.714910
13706.2 13706.2 1.000000 -2.127519 109.978 13.102 5.713471
13709.2 13709.2 1.000000 -2.126837 109.889 13.1003 5.713930
13712.2 13712.2 1.000000 -2.125830 109.803 13.1033 5.714036
13715.2 13715.2 1.000000 -2.124765 109.73 13.1085 5.720985
13718.3 13718.2 1.000000 -2.123238 109.646 13.1184 5.728189
13721.3 13721.3 1.000000 -2.121793 109.558 13.1269 5.735629
13724.4 13724.4 1.000000 -2.120058 109.471 13.1392 5.747203
13727.5 13727.5 1.000000 -2.118447 109.372 13.1485 5.757489
13730.6 13730.6 1.000000 -2.116782 109.297 13.1614 5.770155
13733.8 13733.8 1.000000 -2.114908 109.205 13.175 5.781562
13736.9 13736.9 1.000000 -2.112934 109.119 13.1906 5.793231
13740.1 13740.1 1.000000 -2.111467 109.033 13.1996 5.804280
13743.3 13743.3 1.000000 -2.109677 108.949 13.213 5.814653
13746.5 13746.5 1.000000 -2.107965 108.851 13.2237 5.822151
13749.7 13749.7 1.000000 -2.106275 108.755 13.2345 5.830394
13753 13753 1.000000 -2.104538 108.631 13.2423 5.834619
13756.3 13756.2 1.000000 -2.102978 108.559 13.2542 5.843527
13759.6 13759.5 1.000000 -2.101686 108.475 13.2611 5.849460
13762.9 13762.9 1.000000 -2.100287 108.375 13.2675 5.856501
13766.2 13766.2 1.000000 -2.098936 108.28 13.2737 5.863899
13769.6 13769.5 1.000000 -2.097786 108.189 13.2778 5.871373
13772.9 13772.9 1.000000 -2.096388 108.086 13.2837 5.881543
13776.3 13776.3 1.000000 -2.094850 107.992 13.2926 5.891312
13779.7 13779.7 1.000000 -2.093502 107.893 13.2983 5.899724
13783.1 13783.1 1.000000 -2.092187 107.787 13.3028 5.909004
13786.6 13786.5 1.000000 -2.090619 107.688 13.3113 5.917659
13790 13790 1.000000 -2.088884 107.591 13.3224 5.927359
13793.5 13793.5 1.000000 -2.087351 107.492 13.3306 5.937695
13797 13797 1.000000 -2.085837 107.374 13.3362 5.945698
13800.5 13800.5 1.000000 -2.084102 107.29 13.349 5.957417
13804.1 13804 1.000000 -2.082382 107.175 13.3575 5.967133
13807.6 13807.6 1.000000 -2.080434 107.081 13.3719 5.981377
13811.2 13811.2 1.000000 -2.078825 106.98 13.3807 5.992267
13814.8 13814.8 1.000000 -2.077179 106.835 13.3846 6.000307
13818.4 13818.4 1.000000 -2.075234 106.779 13.4036 6.015913
13822.1 13822 1.000000 -2.073372 106.677 13.4158 6.026636
13825.7 13825.7 1.000000 -2.071475 106.537 13.4236 6.036894
13829.4 13829.4 1.000000 -2.069543 106.463 13.4403 6.048707
13833.1 13833 1.000000 -2.067649 106.345 13.4509 6.058810
13836.8 13836.8 1.000000 -2.065927 106.244 13.4612 6.068696
13840.5 13840.5 1.000000 -2.064100 106.139 13.4725 6.076608
13844.3 13844.2 1.000000 -2.062395 106.019 13.4803 6.084590
13848 13848 1.000000 -2.060780 105.887 13.4852 6.092209
13851.8 13851.8 1.000000 -2.059147 105.7 13.4834 6.097239
13855.6 13855.6 1.000000 -2.057495 105.549 13.4864 6.103580
13859.4 13859.4 1.000000 -2.055631 105.518 13.5076 6.118109
13863.3 13863.2 1.000000 -2.053813 105.398 13.5168 6.128491
13867.2 13867.1 1.000000 -2.051853 105.249 13.5242 6.135124
13871 13871 1.000000 -2.050035 105.085 13.5276 6.142804
13874.9 13874.9 1.000000 -2.048358 104.9 13.5265 6.149058
13878.8 13878.8 1.000000 -2.046464 104.594 13.5126 6.146770
13882.8 13882.8 1.000000 -2.044611 104.388 13.511 6.152071
13886.8 13886.7 1.000000 -2.042673 104.096 13.4994 6.152640
13890.7 13890.7 1.000000 -2.040828 103.768 13.4817 6.151945
13894.7 13894.7 1.000000 -2.038737 103.427 13.4655 6.150260
13898.7 13898.7 1.000000 -2.036880 103.455 13.4941 6.171516
13902.8 13902.7 1.000000 -2.035014 103.304 13.4996 6.180682
13906.8 13906.8 1.000000 -2.033082 103.38 13.5357 6.205780
13910.9 13910.9 1.000000 -2.031085 103.241 13.5445 6.216414
13914.9 13914.9 1.000000 -2.028993 103.111 13.5558 6.226888
13919.1 13919 1.000000 -2.026995 102.908 13.5562 6.233972
13923.2 13923.2 1.000000 -2.025057 102.858 13.5758 6.249486
13927.4 13927.3 1.000000 -2.023157 102.781 13.5914 6.264308
13931.5 13931.5 1.000000 -2.021360 102.733 13.6095 6.279152
13935.7 13935.7 1.000000 -2.019022 102.639 13.629 6.294487
13939.9 13939.9 1.000000 -2.017164 102.518 13.6382 6.305237
13944.2 13944.1 1.000000 -2.015053 102.379 13.6484 6.317981
13948.4 13948.4 1.000000 -2.013143 102.263 13.6591 6.329539
13952.6 13952.6 1.000000 -2.011140 102.138 13.6697 6.341593
13956.9 13956.9 1.000000 -2.009249 101.971 13.6733 6.350013
13961.2 13961.2 1.000000 -2.007578 101.743 13.6654 6.352319
13965.5 13965.5 1.000000 -2.005488 101.293 13.6335 6.343734
13969.9 13969.9 1.000000 -2.000915 94.5081 12.7786 5.950048
13974.2 13974.2 1.000000 -2.001555 101.958 13.777 6.424142
13978.6 13978.6 1.000000 -1.999460 101.811 13.786 6.435925
13983 13983 1.000000 -1.997600 101.635 13.7879 6.442590
13987.4 13987.4 1.000000 -1.995090 101.484 13.8019 6.454850
13991.8 13991.8 1.000000 -1.993236 101.341 13.8081 6.464927
13996.3 13996.3 1.000000 -1.991225 101.207 13.8175 6.477618
14000.8 14000.8 1.000000 -1.989246 101.086 13.8284 6.490823
14005.3 14005.2 1.000000 -1.986993 100.959 13.8422 6.504283
14009.8 14009.8 1.000000 -1.985042 100.835 13.8523 6.517277
14014.3 14014.3 1.000000 -1.983123 100.718 13.8628 6.528608
14018.9 14018.8 1.000000 -1.981052 100.585 13.8731 6.539604
14023.5 14023.4 1.000000 -1.978673 100.67 13.9179 6.566760
14028 14028 1.000000 -1.976792 100.57 13.9302 6.580749
14032.6 14032.6 1.000000 -1.974838 100.431 13.9382 6.591349
14037.2 14037.2 1.000000 -1.972615 100.327 13.9547 6.604993
14041.9 14041.9 1.000000 -1.970590 100.196 13.9648 6.616023
14046.5 14046.5 1.000000 -1.968350 100.085 13.9806 6.632211
14051.3 14051.2 1.000000 -1.966276 99.9529 13.9911 6.643795
14056 14055.9 1.000000 -1.964129 99.8337 14.0045 6.657922
14060.8 14060.6 1.000000 -1.962094 99.6584 14.0084 6.667437
14065.4 14065.4 1.000000 -1.959766 99.5402 14.0244 6.680999
14070.1 14070.1 1.000000 -1.957902 99.2149 14.0046 6.680304
14074.9 14074.9 1.000000 -1.951690 92.7122 13.1683 6.286142
14079.7 14079.7 1.000000 -1.953988 99.1125 14.045 6.716026
14084.5 14084.5 1.000000 -1.951592 99.1064 14.0778 6.737342
14089.3 14089.3 1.000000 -1.949377 99.0018 14.0942 6.752796
14094.2 14094.2 1.000000 -1.947290 98.8442 14.1011 6.763850
14099.1 14099.1 1.000000 -1.945220 98.655 14.1033 6.773386
14103.9 14104 1.000000 -1.942957 98.4975 14.1127 6.784972
14108.9 14108.9 1.000000 -1.940934 98.0378 14.0753 6.776073
14113.9 14113.8 1.000000 -1.938584 98.015 14.1051 6.797776
14118.8 14118.7 1.000000 -1.932072 92.809 13.4432 6.481494
14123.7 14123.7 1.000000 -1.934379 98.3058 14.2066 6.861421
14128.7 14128.7 1.000000 -1.932067 98.0283 14.1993 6.868029
14133.7 14133.7 1.000000 -1.929996 97.8811 14.2073 6.878481
14138.8 14138.7 1.000000 -1.928047 97.7522 14.2163 6.891396
14143.8 14143.8 1.000000 -1.925855 97.6381 14.2309 6.906465
14148.9 14148.8 1.000000 -1.923546 97.4719 14.2395 6.918584
14153.9 14153.9 1.000000 -1.921447 97.2843 14.2419 6.927565
14159 14159 1.000000 -1.919554 96.8625 14.207 6.918178
14164.2 14164.1 1.000000 -1.916723 90.6112 13.3278 6.498168
14169.3 14169.3 1.000000 -1.915023 96.8919 14.2759 6.967559
14174.5 14174.4 1.000000 -1.912677 96.8337 14.3008 6.986742
14179.6 14179.6 1.000000 -1.910595 96.67 14.3064 6.996992
14184.8 14184.8 1.000000 -1.908421 96.5492 14.3196 7.011600
14190 14190 1.000000 -1.906369 96.4092 14.3282 7.023502
14195.3 14195.2 1.000000 -1.904202 96.2768 14.3396 7.036106
14200.5 14200.5 1.000000 -1.901936 96.1386 14.3515 7.051596
14205.8 14205.8 1.000000 -1.899649 96.0076 14.3648 7.064819
14211.1 14211 1.000000 -1.897704 95.8633 14.3711 7.075860
14216.4 14216.4 1.000000 -1.895470 95.7247 14.3824 7.090866