File: Data/Br/Br-K-NaBrO3.xdi
# XDI/1.0 BlueSky/1.13.0a3 BMM/2024-2.0-py310-tiled
# Beamline.name: BMM (06BM) -- Beamline for Materials Measurement (NIST)
# Beamline.collimation: paraboloid mirror, 5 nm Rh on 30 nm Pt
# Beamline.xray_source: NSLS-II three-pole wiggler
# Beamline.focusing: not in use
# Beamline.harmonic_rejection: flat mirror, Pt stripe, pitch = 7.0 mrad relative to beam
# Beamline.software: Bluesky 1.13.0a4, Ophyd 1.9.0, DataBroker 2.0.0b45, Python 3.11.6, 2024-2.3-py311-tiled
# Detector.I0: 25 cm N2, NSLS2 IC
# Detector.It: 25 cm N2, NSLS2 IC
# Detector.Ir: 25 cm N2, NSLS2 IC
# Element.edge: K
# Element.symbol: Br
# Element.reference: Br
# Element.reference_material: bromophenol blue
# Facility.name: NSLS-II
# Facility.energy: 3.0
# Facility.GUP: 318519
# Facility.SAF: 316542
# Facility.cycle: 2025-2
# Facility.current: 399.7
# Facility.mode: top-off
# Mono.name: Si(111)
# Mono.d_spacing: 3.13553
# Mono.encoder_resolution: 5e-06
# Mono.angle_offset: 16.0812
# Mono.direction: forward
# Mono.scan_type: step
# Mono.scan_mode: pseudo channel cut
# Sample.name: ...
# Sample.prep: 2 abs. lengths in PEG pellet. Double kapton containment.
# Sample.SDD_position: 205.0
# Sample.x: 66.174
# Sample.y: 176.101
# Sample.wheel_slot: 18
# Sample.wheel_ring: outer
# Scan.edge_energy: 13473.7
# Scan.experimenters: Malin Dixon Wilkins, John Bussey, John Mccloy, Gavin Mccloy, Seonjin Kim, Maxwell Mccloy, John McCloy
# Scan.start_time: 2025-07-09T21:44:30
# Scan.end_time: 2025-07-09T21:52:15
# Scan.uid: 532ef967-8079-401c-a4c5-e7c183849fe5
# Scan.transient_id: 32778
# Scan.plot_hint: ln(I0/It)  --  ln($5/$6)
# Column.1: energy eV
# Column.2: requested_energy eV
# Column.3: measurement_time seconds
# Column.4: xmu
# Column.5: I0 nA
# Column.6: Itrans nA
# Column.7: Irefer nA
# //////////////////////////////////////////////////////////
# ...
# ----------------------------------------------------------
# energy requested_energy measurement_time xmu I0 It Ir
13273.7 13273.7 0.500000 -0.542007 60.9605 35.4534 28.5035
13283.8 13283.7 0.500000 -0.540611 60.7772 35.3962 28.4911
13293.8 13293.7 0.500000 -0.539207 60.5849 35.3338 28.4747
13303.8 13303.7 0.500000 -0.537540 60.3768 35.2711 28.4536
13313.8 13313.7 0.500000 -0.536067 60.3181 35.2888 28.5019
13323.8 13323.7 0.500000 -0.534498 60.1293 35.2336 28.488
13333.8 13333.7 0.500000 -0.533142 60.0062 35.2091 28.5
13343.8 13343.7 0.500000 -0.531741 59.9075 35.2005 28.5209
13353.8 13353.7 0.500000 -0.530432 59.8137 35.1914 28.5461
13363.7 13363.7 0.500000 -0.529135 59.6615 35.1474 28.5403
13373.7 13373.7 0.500000 -0.527906 59.4879 35.0883 28.5172
13383.7 13383.7 0.500000 -0.526999 59.3546 35.0414 28.5052
13393.7 13393.7 0.500000 -0.526346 59.2244 34.9874 28.4888
13403.6 13403.7 0.500000 -0.525743 59.1004 34.9352 28.468
13413.6 13413.7 0.500000 -0.525718 58.9824 34.8663 28.4276
13423.7 13423.7 0.500000 -0.526420 58.8337 34.754 28.3491
13433.7 13433.7 0.500000 -0.528502 58.6926 34.5985 28.2192
13443.7 13443.7 0.500000 -0.533478 58.7038 34.4334 28.0574
13445.7 13445.7 0.500000 -0.535019 58.6703 34.3608 27.9899
13447.7 13447.7 0.500000 -0.536829 58.6201 34.2693 27.9028
13449.7 13449.7 0.500000 -0.539172 58.6029 34.179 27.8131
13451.7 13451.7 0.500000 -0.541884 58.5851 34.0761 27.7097
13453.7 13453.7 0.500000 -0.545100 58.5572 33.9505 27.5767
13455.6 13455.7 0.500000 -0.549037 58.5237 33.7978 27.4237
13457.7 13457.7 0.500000 -0.554189 58.4979 33.6093 27.2303
13459.7 13459.7 0.500000 -0.560662 58.462 33.3719 26.9765
13461.7 13461.7 0.500000 -0.569068 58.4356 33.0776 26.6614
13463.7 13463.7 0.500000 -0.579963 58.4031 32.701 26.2558
13464.1 13464.2 0.500000 -0.582986 58.3898 32.5949 26.1317
13464.6 13464.7 0.500000 -0.586878 58.3854 32.4658 25.9919
13465.1 13465.2 0.500000 -0.590968 58.3725 32.3262 25.84
13465.6 13465.7 0.500000 -0.595319 58.3644 32.1814 25.6748
13466.1 13466.2 0.500000 -0.600221 58.3587 32.0209 25.4936
13466.6 13466.7 0.500000 -0.605829 58.3445 31.834 25.2913
13467.2 13467.2 0.500000 -0.611636 58.3374 31.6459 25.074
13467.6 13467.7 0.500000 -0.618047 58.3224 31.4356 24.8318
13468.2 13468.2 0.500000 -0.625215 58.3107 31.2047 24.5618
13468.6 13468.7 0.500000 -0.632897 58.2906 30.9553 24.2718
13469.2 13469.2 0.500000 -0.641291 58.2533 30.6769 23.9396
13469.6 13469.7 0.500000 -0.650717 58.2264 30.3751 23.5786
13470.1 13470.2 0.500000 -0.661497 58.2277 30.05 23.1754
13470.7 13470.7 0.500000 -0.673851 58.2337 29.6842 22.7045
13471.2 13471.2 0.500000 -0.687902 58.2528 29.2796 22.1721
13471.6 13471.7 0.500000 -0.704065 58.2581 28.8128 21.5301
13472.1 13472.2 0.500000 -0.722926 58.2594 28.275 20.7534
13472.7 13472.7 0.500000 -0.745431 58.2543 27.6434 19.8108
13473.2 13473.2 0.500000 -0.773193 58.245 26.8822 18.6092
13473.7 13473.7 0.500000 -0.804903 58.2353 26.0388 17.1937
13474.2 13474.2 0.500000 -0.843535 58.2311 25.0503 15.4509
13474.7 13474.7 0.500000 -0.890343 58.2137 23.8976 13.4366
13475.2 13475.2 0.500000 -0.947844 58.1966 22.5556 11.3189
13475.7 13475.7 0.500000 -1.019034 58.1825 21.0006 9.306831
13476.2 13476.2 0.500000 -1.110597 58.1557 19.1543 7.610332
13476.7 13476.7 0.500000 -1.218771 58.1194 17.1797 6.363360
13477.2 13477.2 0.500000 -1.369255 58.0784 14.7691 5.400940
13477.7 13477.7 0.500000 -1.558782 58.0422 12.2116 4.603791
13478.1 13478.2 0.500000 -1.806354 57.9597 9.520000 3.775402
13478.7 13478.7 0.500000 -2.140511 57.8263 6.800063 2.850312
13479.2 13479.2 0.500000 -2.570592 57.6901 4.412730 1.936817
13479.7 13479.7 0.500000 -3.108213 57.672 2.576828 1.154072
13480.2 13480.2 0.500000 -3.777687 57.7629 1.321358 0.594075
13480.7 13480.7 0.500000 -4.469915 57.9029 0.662889 0.289579
13481.2 13481.2 0.500000 -5.180447 58.028 0.326436 0.135187
13481.7 13481.7 0.500000 -5.312346 58.1112 0.286509 0.107800
13482.2 13482.2 0.500000 -4.780583 58.1263 0.487744 0.174826
13482.7 13482.7 0.500000 -4.095774 58.1171 0.967235 0.346979
13483.2 13483.2 0.500000 -3.504793 58.0831 1.745570 0.627647
13483.7 13483.7 0.500000 -3.025361 58.0586 2.818180 1.013487
13484.2 13484.2 0.500000 -2.664580 58.0523 4.042098 1.452306
13484.7 13484.7 0.500000 -2.395270 58.0592 5.291979 1.916754
13485.2 13485.2 0.500000 -2.212348 58.0744 6.355854 2.331120
13485.7 13485.7 0.500000 -2.085625 58.0763 7.214785 2.672841
13486.2 13486.2 0.500000 -2.014936 58.0681 7.742151 2.897895
13486.7 13486.7 0.500000 -1.988876 58.0673 7.946468 3.018742
13487.2 13487.2 0.500000 -2.008794 58.0548 7.788069 2.996903
13487.7 13487.7 0.500000 -2.068175 58.0572 7.339375 2.861712
13488.2 13488.2 0.500000 -2.160691 58.0459 6.689528 2.640596
13488.7 13488.7 0.500000 -2.265463 58.037 6.023198 2.403016
13489.2 13489.2 0.500000 -2.366674 58.0317 5.442914 2.193588
13489.7 13489.7 0.500000 -2.431441 58.0296 5.101385 2.073364
13490.2 13490.2 0.500000 -2.453123 58.012 4.990456 2.042257
13490.7 13490.7 0.500000 -2.431771 57.987 5.095962 2.095233
13491.2 13491.2 0.500000 -2.389739 57.9512 5.311434 2.192986
13491.7 13491.7 0.500000 -2.350098 57.9261 5.523818 2.280358
13492.2 13492.2 0.500000 -2.331139 57.9098 5.627960 2.321288
13492.7 13492.7 0.500000 -2.338810 57.9126 5.585224 2.297585
13493.2 13493.2 0.500000 -2.374646 57.9375 5.390939 2.211055
13493.7 13493.7 0.500000 -2.435841 57.9456 5.071640 2.070767
13494.2 13494.2 0.500000 -2.516017 57.9524 4.681436 1.904047
13494.7 13494.7 0.500000 -2.607386 57.9442 4.272052 1.732984
13495.2 13495.2 0.500000 -2.689418 57.9409 3.935368 1.587867
13495.7 13495.7 0.500000 -2.766630 57.9273 3.642092 1.467632
13496.2 13496.2 0.500000 -2.813585 57.9192 3.474548 1.395969
13496.7 13496.7 0.500000 -2.830336 57.9106 3.416322 1.372126
13497.2 13497.2 0.500000 -2.817570 57.905 3.459880 1.388623
13497.7 13497.7 0.500000 -2.781944 57.8902 3.584446 1.438340
13498.2 13498.2 0.500000 -2.731875 57.8776 3.767665 1.512919
13498.7 13498.7 1.000000 -2.672811 115.739 7.992664 3.214649
13499.7 13499.7 1.000000 -2.552840 115.654 9.004850 3.644784
13500.7 13500.7 1.000000 -2.439214 115.65 10.0881 4.116173
13501.7 13501.7 1.000000 -2.331786 115.665 11.2336 4.619363
13502.8 13502.8 1.000000 -2.234339 115.628 12.3795 5.137254
13503.8 13503.8 1.000000 -2.158705 115.589 13.3475 5.575826
13505 13504.9 1.000000 -2.106525 115.555 14.0584 5.903772
13506 13506 1.000000 -2.073956 115.515 14.5188 6.121605
13507.1 13507.1 1.000000 -2.049685 115.478 14.8707 6.286246
13508.3 13508.3 1.000000 -2.038670 115.441 15.0306 6.362461
13509.4 13509.4 1.000000 -2.046707 115.405 14.9056 6.306241
13510.6 13510.6 1.000000 -2.064702 115.368 14.6351 6.178758
13511.8 13511.8 1.000000 -2.080538 115.326 14.3999 6.056646
13513 13513 1.000000 -2.088126 115.29 14.2866 5.970461
13514.3 13514.2 1.000000 -2.085846 115.257 14.3151 5.936470
13515.5 13515.5 1.000000 -2.072857 115.212 14.4966 5.963270
13516.8 13516.8 1.000000 -2.049876 115.168 14.828 6.058899
13518.1 13518 1.000000 -2.023656 115.127 15.2165 6.180952
13519.4 13519.4 1.000000 -2.006499 115.085 15.4742 6.265002
13520.7 13520.7 1.000000 -2.005276 115.038 15.4867 6.258930
13522.1 13522 1.000000 -2.021637 114.992 15.2294 6.157409
13523.4 13523.4 1.000000 -2.049458 114.954 14.8066 5.996639
13524.8 13524.8 1.000000 -2.078405 114.901 14.3775 5.837043
13526.2 13526.2 1.000000 -2.105364 114.813 13.9844 5.695888
13527.6 13527.6 1.000000 -2.131915 114.737 13.6089 5.562015
13529.1 13529 1.000000 -2.157022 114.742 13.2721 5.438526
13530.5 13530.5 1.000000 -2.176627 114.693 13.0089 5.346273
13532 13532 1.000000 -2.186595 114.627 12.8725 5.304644
13533.5 13533.5 1.000000 -2.187311 114.532 12.8526 5.307812
13535 13535 1.000000 -2.184374 114.321 12.8666 5.321856
13536.6 13536.5 1.000000 -2.184423 112.814 12.6963 5.260601
13538.1 13538.1 1.000000 -2.196110 113.195 12.5912 5.224019
13539.7 13539.7 1.000000 -2.213402 113.793 12.4407 5.166768
13541.3 13541.3 1.000000 -2.236614 113.936 12.1706 5.059399
13542.9 13542.9 1.000000 -2.257120 114.473 11.9797 4.983729
13544.5 13544.5 1.000000 -2.272941 114.448 11.7891 4.907229
13546.2 13546.2 1.000000 -2.281822 114.388 11.6788 4.862514
13547.9 13547.9 1.000000 -2.285173 114.328 11.6336 4.845663
13549.5 13549.5 1.000000 -2.285427 114.269 11.6246 4.846208
13551.3 13551.2 1.000000 -2.286675 114.49 11.6326 4.853448
13553 13553 1.000000 -2.292612 114.409 11.5555 4.827302
13554.7 13554.7 1.000000 -2.303604 114.251 11.4134 4.773908
13556.5 13556.5 1.000000 -2.315152 113.007 11.1596 4.674825
13558.3 13558.3 1.000000 -2.329334 113.132 11.0146 4.623247
13560.1 13560.1 1.000000 -2.338570 114.226 11.0188 4.632646
13561.9 13561.9 1.000000 -2.346134 114.201 10.9334 4.606951
13563.8 13563.8 1.000000 -2.350896 114.094 10.8713 4.591441
13565.7 13565.6 1.000000 -2.352638 113.481 10.794 4.565438
13567.5 13567.5 1.000000 -2.352357 113.842 10.8315 4.589524
13569.4 13569.4 1.000000 -2.345934 113.945 10.9111 4.627961
13571.3 13571.3 1.000000 -2.334503 113.811 11.0235 4.679097
13573.3 13573.2 1.000000 -2.316881 112.698 11.1099 4.718021
13575.2 13575.2 1.000000 -2.297285 112.66 11.3259 4.813726
13577.2 13577.2 1.000000 -2.276701 113.734 11.6717 4.960116
13579.2 13579.2 1.000000 -2.260385 113.703 11.8604 5.040858
13581.2 13581.2 1.000000 -2.248570 113.625 11.9931 5.096309
13583.2 13583.2 1.000000 -2.237855 113.56 12.1154 5.148582
13585.3 13585.3 1.000000 -2.226331 113.5 12.2493 5.205765
13587.4 13587.4 1.000000 -2.216549 113.407 12.3596 5.251758
13589.5 13589.4 1.000000 -2.208811 113.161 12.4286 5.283613
13591.6 13591.5 1.000000 -2.202806 112.459 12.4259 5.286030
13593.7 13593.7 1.000000 -2.197304 112.616 12.5119 5.325063
13595.8 13595.8 1.000000 -2.193902 111.687 12.451 5.303462
13598 13598 1.000000 -2.187211 113.195 12.7038 5.417014
13600.2 13600.2 1.000000 -2.180070 113.16 12.7909 5.458909
13602.4 13602.4 1.000000 -2.173548 113.047 12.8618 5.493764
13604.6 13604.6 1.000000 -2.168550 112.947 12.9147 5.518510
13606.9 13606.9 1.000000 -2.164958 112.935 12.9598 5.539230
13609.2 13609.1 1.000000 -2.161873 112.875 12.993 5.552245
13611.4 13611.4 1.000000 -2.158296 112.762 13.0265 5.562368
13613.7 13613.7 1.000000 -2.154366 112.68 13.0683 5.575804
13616 13616 1.000000 -2.149911 112.675 13.126 5.595952
13618.4 13618.4 1.000000 -2.145467 112.608 13.1767 5.612204
13620.7 13620.7 1.000000 -2.142657 112.475 13.1982 5.618634
13623.1 13623.1 1.000000 -2.142815 112.486 13.1973 5.616498
13625.5 13625.5 1.000000 -2.145350 112.424 13.1567 5.600096
13627.9 13627.9 1.000000 -2.149568 112.356 13.0933 5.574822
13630.4 13630.3 1.000000 -2.155072 112.205 13.0039 5.542348
13632.8 13632.8 1.000000 -2.161317 112.204 12.923 5.513808
13635.3 13635.2 1.000000 -2.167496 112.137 12.8356 5.486284
13637.8 13637.7 1.000000 -2.172294 112.055 12.7648 5.463487
13640.3 13640.2 1.000000 -2.176470 111.984 12.7036 5.446374
13642.8 13642.8 1.000000 -2.180281 111.91 12.6469 5.430883
13645.3 13645.3 1.000000 -2.183381 111.817 12.5973 5.416045
13647.9 13647.9 1.000000 -2.185873 111.732 12.5563 5.404698
13650.5 13650.5 1.000000 -2.187444 111.607 12.5227 5.396079
13653.1 13653.1 1.000000 -2.188264 110.784 12.4201 5.357365
13655.7 13655.7 1.000000 -2.189877 111.485 12.4785 5.388032
13658.4 13658.4 1.000000 -2.190455 111.505 12.4737 5.389813
13661 13661 1.000000 -2.191109 111.406 12.4544 5.387242
13663.7 13663.7 1.000000 -2.191908 111.327 12.4356 5.385535
13666.4 13666.4 1.000000 -2.192987 111.238 12.4123 5.381943
13669.1 13669.1 1.000000 -2.194986 111.155 12.3783 5.373709
13671.9 13671.9 1.000000 -2.197779 111.07 12.3343 5.359827
13674.6 13674.6 1.000000 -2.201228 110.981 12.282 5.343442
13677.4 13677.4 1.000000 -2.204089 110.9 12.2379 5.328686
13680.2 13680.2 1.000000 -2.204985 110.812 12.2172 5.322289
13683 13683 1.000000 -2.203223 110.729 12.2296 5.332333
13685.9 13685.8 1.000000 -2.200373 110.637 12.2543 5.346350
13688.7 13688.7 1.000000 -2.198031 110.564 12.275 5.357445
13691.6 13691.5 1.000000 -2.194964 110.48 12.3034 5.373575
13694.5 13694.4 1.000000 -2.188155 110.4 12.3784 5.410272
13697.4 13697.4 1.000000 -2.180854 110.309 12.4589 5.448306
13700.3 13700.3 1.000000 -2.176235 110.21 12.5053 5.467768
13703.3 13703.2 1.000000 -2.170013 110.136 12.5749 5.500999
13706.2 13706.2 1.000000 -2.165281 110.056 12.6254 5.523549
13709.2 13709.2 1.000000 -2.161938 109.958 12.6564 5.540580
13712.2 13712.2 1.000000 -2.157763 109.878 12.7001 5.558278
13715.2 13715.2 1.000000 -2.154194 109.791 12.7354 5.575890
13718.3 13718.2 1.000000 -2.150061 109.711 12.7788 5.597954
13721.4 13721.3 1.000000 -2.146192 109.629 12.8188 5.619588
13724.4 13724.4 1.000000 -2.142264 109.534 12.8581 5.641664
13727.5 13727.5 1.000000 -2.138412 109.445 12.8972 5.666120
13730.7 13730.6 1.000000 -2.135072 109.364 12.9308 5.686449
13733.8 13733.8 1.000000 -2.132469 109.279 12.9544 5.703453
13736.9 13736.9 1.000000 -2.130451 109.196 12.9708 5.716429
13740.1 13740.1 1.000000 -2.128252 109.105 12.9884 5.729426
13743.3 13743.3 1.000000 -2.125308 109.016 13.0161 5.747233
13746.5 13746.5 1.000000 -2.121656 108.914 13.0515 5.764941
13749.8 13749.7 1.000000 -2.117810 108.819 13.0903 5.783851
13753 13753 1.000000 -2.114780 108.694 13.115 5.798560
13756.3 13756.2 1.000000 -2.112438 108.622 13.137 5.809959
13759.6 13759.5 1.000000 -2.110837 108.529 13.1468 5.816079
13762.9 13762.9 1.000000 -2.110142 108.428 13.1438 5.819899
13766.2 13766.2 1.000000 -2.110313 108.336 13.1303 5.820530
13769.6 13769.5 1.000000 -2.111277 108.236 13.1056 5.813888
13772.9 13772.9 1.000000 -2.112429 108.138 13.0786 5.808863
13776.2 13776.3 1.000000 -2.113793 108.045 13.0495 5.801602
13779.7 13779.7 1.000000 -2.115004 108.301 13.0647 5.815227
13783.1 13783.1 1.000000 -2.115711 108.191 13.0421 5.811196
13786.5 13786.5 1.000000 -2.115641 108.096 13.0316 5.811836
13790 13790 1.000000 -2.115226 108.004 13.0259 5.814682
13793.5 13793.5 1.000000 -2.114536 107.885 13.0206 5.817578
13797 13797 1.000000 -2.114077 107.797 13.0159 5.821803
13800.5 13800.5 1.000000 -2.113089 107.688 13.0156 5.825612
13804.1 13804 1.000000 -2.112528 107.592 13.0113 5.832777
13807.6 13807.6 1.000000 -2.111807 107.485 13.0078 5.836321
13811.2 13811.2 1.000000 -2.110885 107.377 13.0067 5.842401
13814.8 13814.8 1.000000 -2.109853 107.213 13.0002 5.847289
13818.4 13818.4 1.000000 -2.108860 107.17 13.0078 5.856265
13822.1 13822 1.000000 -2.107751 107.061 13.0091 5.861950
13825.7 13825.7 1.000000 -2.106495 106.916 13.0078 5.867532
13829.4 13829.4 1.000000 -2.105543 106.826 13.0093 5.875297
13833.1 13833 1.000000 -2.103707 106.712 13.0192 5.882762
13836.8 13836.8 1.000000 -2.102130 106.629 13.0296 5.891616
13840.5 13840.5 1.000000 -2.100047 106.523 13.0438 5.902361
13844.3 13844.2 1.000000 -2.097866 106.405 13.0578 5.913660
13848 13848 1.000000 -2.095460 106.268 13.0725 5.924905
13851.8 13851.8 1.000000 -2.093004 106.108 13.0849 5.937443
13855.6 13855.6 1.000000 -2.089723 105.951 13.1084 5.951386
13859.4 13859.4 1.000000 -2.086560 105.918 13.1459 5.973638
13863.3 13863.2 1.000000 -2.083135 105.796 13.1758 5.991614
13867.1 13867.1 1.000000 -2.079649 105.651 13.2036 6.009191
13871 13871 1.000000 -2.076165 105.49 13.2295 6.028370
13874.9 13874.9 1.000000 -2.072895 105.3 13.2489 6.041198
13878.8 13878.8 1.000000 -2.069822 105.016 13.2539 6.049456
13882.8 13882.8 1.000000 -2.066905 104.785 13.2633 6.060491
13886.7 13886.7 1.000000 -2.063581 104.486 13.2695 6.067401
13890.7 13890.7 1.000000 -2.060611 104.173 13.2692 6.074213
13894.7 13894.7 1.000000 -2.057754 103.85 13.2658 6.079648
13898.7 13898.7 1.000000 -2.055342 103.877 13.3013 6.102593
13902.8 13902.7 1.000000 -2.052884 103.759 13.3189 6.117683
13906.8 13906.8 1.000000 -2.050508 103.805 13.3565 6.142536
13910.9 13910.9 1.000000 -2.048150 103.676 13.3714 6.156208
13915 13914.9 1.000000 -2.045456 103.561 13.3926 6.171482
13919.1 13919 1.000000 -2.043290 103.371 13.3971 6.181518
13923.2 13923.2 1.000000 -2.040773 103.338 13.4265 6.201036
13927.4 13927.3 1.000000 -2.038535 103.268 13.4474 6.217398
13931.5 13931.5 1.000000 -2.036382 103.258 13.4751 6.236990
13935.7 13935.7 1.000000 -2.034352 103.17 13.4911 6.251794
13939.9 13939.9 1.000000 -2.032229 103.062 13.5056 6.264097
13944.1 13944.1 1.000000 -2.030663 102.929 13.5093 6.272881
13948.3 13948.4 1.000000 -2.029375 102.829 13.5135 6.282966
13952.6 13952.6 1.000000 -2.027724 102.684 13.5168 6.289341
13956.9 13956.9 1.000000 -2.026550 102.541 13.5138 6.295809
13961.2 13961.2 1.000000 -2.025433 102.332 13.5014 6.296744
13965.5 13965.5 1.000000 -2.024030 101.905 13.4639 6.284482
13969.9 13969.9 1.000000 -2.020882 95.1059 12.6052 5.889639
13974.2 13974.2 1.000000 -2.021351 102.526 13.5823 6.352933
13978.7 13978.6 1.000000 -2.019789 102.401 13.587 6.361301
13983 13983 1.000000 -2.018314 102.254 13.5874 6.367663
13987.4 13987.4 1.000000 -2.016757 102.118 13.5905 6.377407
13991.9 13991.8 1.000000 -2.014979 102 13.599 6.388217
13996.3 13996.3 1.000000 -2.013294 101.877 13.6055 6.398403
14000.8 14000.8 1.000000 -2.011566 101.76 13.6133 6.409465
14005.3 14005.2 1.000000 -2.009707 101.65 13.6239 6.423031
14009.8 14009.8 1.000000 -2.007724 101.539 13.6361 6.436500
14014.3 14014.3 1.000000 -2.005525 101.41 13.6487 6.447399
14018.8 14018.8 1.000000 -2.003461 101.286 13.6602 6.459596
14023.4 14023.4 1.000000 -2.001344 101.155 13.6714 6.472283
14028 14028 1.000000 -1.998888 101.036 13.689 6.484899
14032.6 14032.6 1.000000 -1.996480 100.923 13.7067 6.500797
14037.3 14037.2 1.000000 -1.994225 100.812 13.7224 6.516481
14041.9 14041.9 1.000000 -1.991650 100.696 13.7419 6.530156
14046.6 14046.5 1.000000 -1.989283 100.576 13.7581 6.547973
14051.2 14051.2 1.000000 -1.986724 100.462 13.7778 6.563522
14055.9 14055.9 1.000000 -1.983969 100.341 13.7991 6.580865
14060.6 14060.6 1.000000 -1.981459 100.173 13.8106 6.594435
14065.4 14065.4 1.000000 -1.978529 100.027 13.8309 6.611088
14070.1 14070.1 1.000000 -1.975671 99.7017 13.8255 6.615319
14074.9 14074.9 1.000000 -1.969667 93.0454 12.9801 6.215158
14079.7 14079.7 1.000000 -1.970152 99.6618 13.8964 6.664578
14084.5 14084.5 1.000000 -1.967335 99.646 13.9334 6.690241
14089.4 14089.3 1.000000 -1.964482 99.5378 13.958 6.710468
14094.3 14094.2 1.000000 -1.961748 99.3733 13.9731 6.724442
14099.1 14099.1 1.000000 -1.959118 99.1857 13.9835 6.736263
14104 14104 1.000000 -1.956426 99.0218 13.998 6.750130
14108.9 14108.9 1.000000 -1.954043 98.5712 13.9675 6.744314
14113.9 14113.8 1.000000 -1.951489 98.54 13.9988 6.768413
14118.8 14118.7 1.000000 -1.944931 93.0344 13.3036 6.435786
14123.8 14123.7 1.000000 -1.946710 98.7972 14.1026 6.834897
14128.7 14128.7 1.000000 -1.944018 98.4179 14.0863 6.833679
14135.3 14133.7 1.000000 -1.941753 98.549 14.1371 6.868210
14139.1 14138.7 1.000000 -1.939647 98.4624 14.1544 6.882014
14143.8 14143.8 1.000000 -1.937651 98.3386 14.1649 6.896068
14148.8 14148.8 1.000000 -1.935468 98.199 14.1757 6.909250
14153.9 14153.9 1.000000 -1.933519 97.9988 14.1744 6.916393
14159 14159 1.000000 -1.931511 97.5626 14.1397 6.906677
14164.1 14164.1 1.000000 -1.929176 91.2287 13.2526 6.482000
14169.3 14169.3 1.000000 -1.927384 97.6089 14.2049 6.955867
14174.4 14174.4 1.000000 -1.925442 97.5453 14.2232 6.971964
14179.6 14179.6 1.000000 -1.923265 97.3701 14.2286 6.982095
14184.8 14184.8 1.000000 -1.921448 97.2559 14.2378 6.996889
14190 14190 1.000000 -1.919326 97.0962 14.2446 7.006591
14195.3 14195.2 1.000000 -1.917273 96.9571 14.2534 7.018127
14200.5 14200.5 1.000000 -1.915485 96.8227 14.2591 7.030176
14205.8 14205.8 1.000000 -1.913382 96.6594 14.265 7.040755
14211.1 14211 1.000000 -1.911249 96.514 14.274 7.052151
14216.4 14216.4 1.000000 -1.909189 96.3635 14.2811 7.064562