File: Data/Br/Br-K-NaBr.xdi
# XDI/1.0 BlueSky/1.13.0a3 BMM/2024-2.0-py310-tiled
# Beamline.name: BMM (06BM) -- Beamline for Materials Measurement (NIST)
# Beamline.collimation: paraboloid mirror, 5 nm Rh on 30 nm Pt
# Beamline.xray_source: NSLS-II three-pole wiggler
# Beamline.focusing: not in use
# Beamline.harmonic_rejection: flat mirror, Pt stripe, pitch = 7.0 mrad relative to beam
# Beamline.software: Bluesky 1.13.0a4, Ophyd 1.9.0, DataBroker 2.0.0b45, Python 3.11.6, 2024-2.3-py311-tiled
# Detector.I0: 25 cm N2, NSLS2 IC
# Detector.It: 25 cm N2, NSLS2 IC
# Detector.Ir: 25 cm N2, NSLS2 IC
# Element.edge: K
# Element.symbol: Br
# Element.reference: Br
# Element.reference_material: bromophenol blue
# Facility.name: NSLS-II
# Facility.energy: 3.0
# Facility.GUP: 318519
# Facility.SAF: 316542
# Facility.cycle: 2025-2
# Facility.current: 400.6
# Facility.mode: top-off
# Mono.name: Si(111)
# Mono.d_spacing: 3.13553
# Mono.encoder_resolution: 5e-06
# Mono.angle_offset: 16.0812
# Mono.direction: forward
# Mono.scan_type: step
# Mono.scan_mode: pseudo channel cut
# Sample.name: ...
# Sample.prep: 2 abs. lengths in PEG pellet. Double kapton containment.
# Sample.SDD_position: 205.0
# Sample.x: 66.174
# Sample.y: 176.101
# Sample.wheel_slot: 17
# Sample.wheel_ring: outer
# Scan.edge_energy: 13473.7
# Scan.experimenters: Malin Dixon Wilkins, John Bussey, John Mccloy, Gavin Mccloy, Seonjin Kim, Maxwell Mccloy, John McCloy
# Scan.start_time: 2025-07-09T21:36:03
# Scan.end_time: 2025-07-09T21:43:58
# Scan.uid: 323dbd41-cc1f-4ddc-9f77-a1e2b87073d8
# Scan.transient_id: 32774
# Scan.plot_hint: ln(I0/It)  --  ln($5/$6)
# Column.1: energy eV
# Column.2: requested_energy eV
# Column.3: measurement_time seconds
# Column.4: xmu
# Column.5: I0 nA
# Column.6: Itrans nA
# Column.7: Irefer nA
# //////////////////////////////////////////////////////////
# ...
# ----------------------------------------------------------
# energy requested_energy measurement_time xmu I0 It Ir
13273.8 13273.7 0.500000 -0.511075 61.0433 36.6168 29.5028
13283.9 13283.7 0.500000 -0.509792 60.8701 36.5598 29.4914
13293.8 13293.7 0.500000 -0.508328 60.668 36.4918 29.469
13303.8 13303.7 0.500000 -0.506858 60.4491 36.4136 29.439
13313.7 13313.7 0.500000 -0.505534 60.4013 36.4331 29.4922
13323.7 13323.7 0.500000 -0.503974 60.2178 36.3791 29.4738
13333.7 13333.7 0.500000 -0.502723 60.0919 36.3485 29.483
13343.7 13343.7 0.500000 -0.501459 59.9935 36.3348 29.5079
13353.8 13353.7 0.500000 -0.500080 59.8995 36.328 29.5307
13363.8 13363.7 0.500000 -0.498926 59.7433 36.2751 29.5189
13373.7 13373.7 0.500000 -0.497762 59.5849 36.221 29.5008
13383.8 13383.7 0.500000 -0.496830 59.4494 36.1724 29.4912
13393.8 13393.7 0.500000 -0.495931 59.318 36.1249 29.4784
13403.7 13403.7 0.500000 -0.495384 59.1905 36.067 29.4526
13413.8 13413.7 0.500000 -0.495036 59.0774 36.0106 29.426
13423.7 13423.7 0.500000 -0.495346 58.9381 35.9145 29.3614
13433.6 13433.7 0.500000 -0.496520 58.7767 35.7741 29.2406
13443.6 13443.7 0.500000 -0.499457 58.6267 35.5782 29.0525
13445.7 13445.7 0.500000 -0.500549 58.5963 35.5209 28.9988
13447.6 13447.7 0.500000 -0.501702 58.5471 35.4502 28.9249
13449.6 13449.7 0.500000 -0.503148 58.5201 35.3827 28.8554
13451.7 13451.7 0.500000 -0.505012 58.5063 35.3084 28.7725
13453.6 13453.7 0.500000 -0.507080 58.4785 35.2188 28.6702
13455.6 13455.7 0.500000 -0.509704 58.4554 35.1126 28.5478
13457.6 13457.7 0.500000 -0.513118 58.4187 34.971 28.3871
13459.6 13459.7 0.500000 -0.517467 58.3886 34.8012 28.1921
13461.7 13461.7 0.500000 -0.523149 58.3623 34.5885 27.941
13463.6 13463.7 0.500000 -0.530464 58.3335 34.3195 27.6101
13464.1 13464.2 0.500000 -0.532569 58.3194 34.239 27.518
13464.6 13464.7 0.500000 -0.535161 58.3172 34.1491 27.4055
13465.1 13465.2 0.500000 -0.537864 58.3069 34.0509 27.2823
13465.6 13465.7 0.500000 -0.541056 58.296 33.936 27.1417
13466.1 13466.2 0.500000 -0.544513 58.289 33.8149 26.9909
13466.6 13466.7 0.500000 -0.548301 58.2839 33.6841 26.8195
13467.1 13467.2 0.500000 -0.552454 58.2718 33.5375 26.6341
13467.6 13467.7 0.500000 -0.556907 58.2604 33.3819 26.4338
13468.1 13468.2 0.500000 -0.562099 58.2556 33.2064 26.203
13468.6 13468.7 0.500000 -0.567576 58.2356 33.0136 25.9548
13469.1 13469.2 0.500000 -0.573909 58.2021 32.7863 25.6572
13469.6 13469.7 0.500000 -0.580772 58.1701 32.5442 25.3342
13470.1 13470.2 0.500000 -0.589427 58.1625 32.2595 24.9481
13470.6 13470.7 0.500000 -0.598741 58.1624 31.9605 24.5237
13471.2 13471.2 0.500000 -0.610384 58.1822 31.6012 24.0086
13471.6 13471.7 0.500000 -0.623710 58.1982 31.1915 23.389
13472.1 13472.2 0.500000 -0.640297 58.1987 30.6786 22.619
13472.6 13472.7 0.500000 -0.660349 58.1965 30.0684 21.6721
13473.2 13473.2 0.500000 -0.687296 58.1909 29.2662 20.3964
13473.7 13473.7 0.500000 -0.719971 58.1819 28.321 18.848
13474.2 13474.2 0.500000 -0.763772 58.1708 27.1021 16.8871
13474.7 13474.7 0.500000 -0.821678 58.1586 25.5719 14.5972
13475.2 13475.2 0.500000 -0.896116 58.1486 23.7334 12.1627
13475.7 13475.7 0.500000 -1.003687 58.1318 21.3068 9.627531
13476.2 13476.2 0.500000 -1.126185 58.1165 18.8453 7.601318
13476.7 13476.7 0.500000 -1.277744 58.0663 16.1811 6.073637
13477.2 13477.2 0.500000 -1.441207 58.0295 13.7322 5.072986
13477.7 13477.7 0.500000 -1.595411 57.9888 11.7616 4.522076
13478.2 13478.2 0.500000 -1.738948 57.9215 10.1771 4.211970
13478.7 13478.7 0.500000 -1.837368 57.7832 9.201159 4.032157
13479.2 13479.2 0.500000 -1.903488 57.6474 8.592220 3.895261
13479.7 13479.7 0.500000 -1.934062 57.6071 8.327675 3.772761
13480.1 13480.2 0.500000 -1.941509 57.6833 8.276824 3.655063
13480.7 13480.7 0.500000 -1.933607 57.8273 8.363308 3.539890
13481.2 13481.2 0.500000 -1.916765 57.9541 8.524010 3.445664
13481.7 13481.7 0.500000 -1.892371 58.0442 8.748073 3.387063
13482.2 13482.2 0.500000 -1.861077 58.0664 9.029621 3.377390
13482.7 13482.7 0.500000 -1.823176 58.0592 9.377259 3.424730
13483.2 13483.2 0.500000 -1.785006 58.0313 9.737421 3.514999
13483.7 13483.7 0.500000 -1.743163 58.0057 10.149 3.646034
13484.2 13484.2 0.500000 -1.703697 57.9906 10.5548 3.800421
13484.7 13484.7 0.500000 -1.668494 58.0059 10.9359 3.958841
13485.2 13485.2 0.500000 -1.635990 58.0157 11.2991 4.133879
13485.7 13485.7 0.500000 -1.608830 58.027 11.6125 4.303137
13486.2 13486.2 0.500000 -1.588018 58.0279 11.8568 4.455456
13486.7 13486.7 0.500000 -1.573115 58.0197 12.0332 4.594404
13487.2 13487.2 0.500000 -1.566246 58.0096 12.114 4.692488
13487.7 13487.7 0.500000 -1.567368 58.0066 12.0998 4.756696
13488.2 13488.2 0.500000 -1.576460 58.0012 11.9892 4.773318
13488.7 13488.7 0.500000 -1.593173 57.9887 11.7879 4.742727
13489.2 13489.2 0.500000 -1.616679 57.9811 11.5125 4.675201
13489.7 13489.7 0.500000 -1.642306 57.9648 11.2181 4.587752
13490.2 13490.2 0.500000 -1.670574 57.9589 10.9043 4.485348
13490.7 13490.7 0.500000 -1.697053 57.939 10.6157 4.385866
13491.2 13491.2 0.500000 -1.721234 57.9059 10.3562 4.290603
13491.7 13491.7 0.500000 -1.740264 57.8715 10.1549 4.213093
13492.2 13492.2 0.500000 -1.754121 57.8596 10.0131 4.149139
13492.7 13492.7 0.500000 -1.763366 57.8657 9.922043 4.103868
13493.2 13493.2 0.500000 -1.767729 57.8809 9.881450 4.074932
13493.7 13493.7 0.500000 -1.768142 57.8885 9.878661 4.059468
13494.2 13494.2 0.500000 -1.765077 57.8918 9.909551 4.056883
13494.7 13494.7 0.500000 -1.759590 57.8883 9.963468 4.065612
13495.2 13495.2 0.500000 -1.751980 57.8892 10.0397 4.084233
13495.7 13495.7 0.500000 -1.742701 57.8775 10.1313 4.108396
13496.2 13496.2 0.500000 -1.733335 57.8685 10.225 4.137099
13496.7 13496.7 0.500000 -1.724018 57.8587 10.319 4.170110
13497.2 13497.2 0.500000 -1.715342 57.851 10.4075 4.201469
13497.7 13497.7 0.500000 -1.707801 57.8364 10.4837 4.231518
13498.2 13498.2 0.500000 -1.700940 57.828 10.5543 4.261943
13498.7 13498.7 1.000000 -1.694943 115.611 21.2273 8.583076
13499.7 13499.7 1.000000 -1.685046 115.53 21.4234 8.707473
13500.7 13500.7 1.000000 -1.677164 115.525 21.592 8.843455
13501.7 13501.7 1.000000 -1.670684 115.529 21.7331 8.979785
13502.8 13502.8 1.000000 -1.665864 115.511 21.8347 9.098436
13503.8 13503.8 1.000000 -1.663754 115.471 21.8732 9.178140
13504.9 13504.9 1.000000 -1.664717 115.424 21.8433 9.217077
13506.1 13506 1.000000 -1.668226 115.388 21.76 9.218753
13507.2 13507.1 1.000000 -1.672679 115.354 21.657 9.197021
13508.3 13508.3 1.000000 -1.676808 115.319 21.5612 9.168583
13509.4 13509.4 1.000000 -1.680562 115.275 21.4722 9.129267
13510.6 13510.6 1.000000 -1.684569 115.236 21.379 9.072055
13511.8 13511.8 1.000000 -1.688463 115.432 21.3323 9.012227
13513 13513 1.000000 -1.692544 115.486 21.2553 8.923725
13514.2 13514.2 1.000000 -1.695556 115.448 21.1844 8.826179
13515.5 13515.5 1.000000 -1.696815 115.407 21.1502 8.742498
13516.8 13516.8 1.000000 -1.696185 115.369 21.1566 8.680728
13518.1 13518 1.000000 -1.693838 115.321 21.1975 8.649471
13519.4 13519.4 1.000000 -1.690661 115.274 21.2562 8.644175
13520.7 13520.7 1.000000 -1.686732 115.233 21.3324 8.662227
13522 13522 1.000000 -1.682963 115.183 21.4035 8.694498
13523.4 13523.4 1.000000 -1.679166 115.137 21.4764 8.739849
13524.8 13524.8 1.000000 -1.675502 115.073 21.5433 8.792472
13526.2 13526.2 1.000000 -1.671253 114.991 21.6196 8.849395
13527.6 13527.6 1.000000 -1.666511 114.926 21.7102 8.912844
13529.1 13529 1.000000 -1.661284 114.899 21.8188 8.985639
13530.5 13530.5 1.000000 -1.656129 114.848 21.9218 9.054394
13532 13532 1.000000 -1.651256 114.798 22.0192 9.117393
13533.5 13533.5 1.000000 -1.647299 114.708 22.0892 9.164600
13535 13535 1.000000 -1.644182 114.502 22.1185 9.195530
13536.5 13536.5 1.000000 -1.642381 113.062 21.8797 9.110665
13538.1 13538.1 1.000000 -1.641511 113.304 21.9454 9.150120
13539.7 13539.7 1.000000 -1.641300 113.988 22.0827 9.217149
13541.3 13541.3 1.000000 -1.641781 114.073 22.0885 9.229514
13542.9 13542.9 1.000000 -1.642316 114.654 22.1892 9.277656
13544.5 13544.5 1.000000 -1.643130 114.614 22.1634 9.271274
13546.2 13546.2 1.000000 -1.643744 114.553 22.138 9.264515
13547.9 13547.9 1.000000 -1.644371 114.49 22.1119 9.259609
13549.6 13549.5 1.000000 -1.644749 114.437 22.0934 9.257873
13551.2 13551.2 1.000000 -1.644988 114.378 22.0767 9.257869
13553 13553 1.000000 -1.644889 114.298 22.0634 9.265488
13554.7 13554.7 1.000000 -1.644763 114.144 22.0365 9.267220
13556.5 13556.5 1.000000 -1.644244 112.97 21.8211 9.188619
13558.3 13558.3 1.000000 -1.644031 112.937 21.8195 9.206310
13560.1 13560.1 1.000000 -1.642823 114.075 22.0658 9.325951
13561.9 13561.9 1.000000 -1.641689 114.066 22.0892 9.355619
13563.8 13563.8 1.000000 -1.640393 113.969 22.0991 9.379599
13565.6 13565.6 1.000000 -1.638854 113.367 22.0161 9.361816
13567.5 13567.5 1.000000 -1.637317 113.674 22.1097 9.416133
13569.4 13569.4 1.000000 -1.635899 113.82 22.1696 9.450748
13571.3 13571.3 1.000000 -1.634900 113.692 22.1668 9.455939
13573.3 13573.2 1.000000 -1.633641 112.646 21.9904 9.387975
13575.2 13575.2 1.000000 -1.632807 112.513 21.9829 9.389253
13577.2 13577.2 1.000000 -1.631392 113.621 22.2307 9.494965
13579.2 13579.2 1.000000 -1.630579 113.599 22.2445 9.501044
13581.2 13581.2 1.000000 -1.629879 113.528 22.2461 9.498383
13583.2 13583.2 1.000000 -1.629463 113.457 22.2416 9.496899
13585.3 13585.3 1.000000 -1.628941 113.381 22.2381 9.496672
13587.4 13587.4 1.000000 -1.628404 113.29 22.2323 9.492868
13589.5 13589.4 1.000000 -1.627895 113.045 22.1954 9.480417
13591.6 13591.5 1.000000 -1.627568 112.311 22.0586 9.428417
13593.7 13593.7 1.000000 -1.626813 112.557 22.1236 9.461259
13595.8 13595.8 1.000000 -1.626975 111.511 21.9145 9.380535
13598 13598 1.000000 -1.626735 113.06 22.2242 9.520939
13600.2 13600.2 1.000000 -1.626561 113.029 22.222 9.528221
13602.4 13602.4 1.000000 -1.626750 112.917 22.1958 9.525149
13604.6 13604.6 1.000000 -1.626638 112.808 22.1769 9.521382
13606.9 13606.9 1.000000 -1.626569 112.801 22.177 9.522459
13609.1 13609.1 1.000000 -1.626258 112.74 22.1719 9.517014
13611.4 13611.4 1.000000 -1.625685 112.638 22.1645 9.507008
13613.7 13613.7 1.000000 -1.625194 112.529 22.1539 9.494230
13616 13616 1.000000 -1.624594 112.524 22.1663 9.493104
13618.4 13618.4 1.000000 -1.623886 112.45 22.1675 9.486411
13620.7 13620.7 1.000000 -1.623092 112.329 22.161 9.478534
13623.1 13623.1 1.000000 -1.622114 112.332 22.1834 9.484492
13625.5 13625.5 1.000000 -1.621051 112.269 22.1945 9.490701
13627.9 13627.9 1.000000 -1.619819 112.19 22.2062 9.500677
13630.3 13630.3 1.000000 -1.618781 112.051 22.2018 9.506717
13632.8 13632.8 1.000000 -1.617419 112.048 22.2314 9.530872
13635.3 13635.2 1.000000 -1.616141 111.983 22.2469 9.552771
13637.7 13637.7 1.000000 -1.614659 111.91 22.2654 9.575623
13640.3 13640.2 1.000000 -1.613291 111.833 22.2807 9.599108
13642.8 13642.8 1.000000 -1.611819 111.742 22.2951 9.617332
13645.3 13645.3 1.000000 -1.610822 111.671 22.3034 9.633746
13647.9 13647.9 1.000000 -1.609783 111.588 22.3098 9.650539
13650.5 13650.5 1.000000 -1.608826 111.474 22.3084 9.659892
13653.1 13653.1 1.000000 -1.607898 110.677 22.1695 9.609300
13655.8 13655.7 1.000000 -1.607052 111.324 22.318 9.682438
13658.4 13658.4 1.000000 -1.606214 111.353 22.3425 9.701409
13661 13661 1.000000 -1.605628 111.269 22.3388 9.711292
13663.7 13663.7 1.000000 -1.604942 111.183 22.3367 9.721006
13666.4 13666.4 1.000000 -1.604234 111.103 22.3365 9.732029
13669.1 13669.1 1.000000 -1.603684 111.027 22.3335 9.742856
13671.9 13671.9 1.000000 -1.602890 110.94 22.3337 9.752687
13674.7 13674.6 1.000000 -1.602255 110.876 22.3351 9.762387
13677.4 13677.4 1.000000 -1.601364 110.778 22.3353 9.770028
13680.2 13680.2 1.000000 -1.600515 110.7 22.3385 9.780039
13683 13683 1.000000 -1.599495 110.613 22.3437 9.789536
13685.8 13685.8 1.000000 -1.598673 110.536 22.3464 9.794511
13688.7 13688.7 1.000000 -1.597895 110.453 22.3471 9.799733
13691.6 13691.5 1.000000 -1.597234 110.369 22.3448 9.803105
13694.5 13694.4 1.000000 -1.596437 110.647 22.4189 9.841699
13697.4 13697.4 1.000000 -1.595536 110.568 22.4231 9.849702
13700.3 13700.3 1.000000 -1.594572 110.466 22.4241 9.853013
13703.2 13703.2 1.000000 -1.593478 110.397 22.4347 9.857465
13706.2 13706.2 1.000000 -1.592634 110.318 22.4374 9.863365
13709.2 13709.2 1.000000 -1.591545 110.231 22.4443 9.867246
13712.2 13712.2 1.000000 -1.590724 110.159 22.4479 9.869705
13715.2 13715.2 1.000000 -1.589741 110.078 22.4536 9.875580
13718.3 13718.2 1.000000 -1.588929 109.995 22.4549 9.883821
13721.4 13721.3 1.000000 -1.587968 109.913 22.4597 9.892349
13724.4 13724.4 1.000000 -1.587073 109.818 22.4603 9.903129
13727.5 13727.5 1.000000 -1.586040 109.732 22.4659 9.914806
13730.6 13730.6 1.000000 -1.585349 109.619 22.4584 9.924539
13733.8 13733.8 1.000000 -1.584442 109.564 22.4675 9.939771
13736.9 13736.9 1.000000 -1.583464 109.486 22.4733 9.951304
13740.1 13740.1 1.000000 -1.582532 109.393 22.4753 9.962158
13743.3 13743.3 1.000000 -1.581719 109.305 22.4755 9.970422
13746.5 13746.5 1.000000 -1.580601 109.211 22.4811 9.976324
13749.8 13749.7 1.000000 -1.579763 109.108 22.4789 9.980336
13753 13753 1.000000 -1.578826 108.998 22.4772 9.980824
13756.3 13756.2 1.000000 -1.577842 108.929 22.4852 9.990240
13759.6 13759.5 1.000000 -1.576851 108.836 22.4883 9.998183
13762.8 13762.9 1.000000 -1.575944 108.748 22.4905 10.0067
13766.2 13766.2 1.000000 -1.574912 108.652 22.4938 10.016
13769.6 13769.5 1.000000 -1.573840 108.538 22.4942 10.0294
13772.9 13772.9 1.000000 -1.572662 108.442 22.5009 10.0399
13776.3 13776.3 1.000000 -1.571606 108.347 22.5049 10.0533
13779.7 13779.7 1.000000 -1.570553 108.247 22.5077 10.0662
13783.1 13783.1 1.000000 -1.569372 108.142 22.5125 10.0779
13786.6 13786.5 1.000000 -1.568390 108.054 22.5164 10.0907
13790 13790 1.000000 -1.567248 107.959 22.5223 10.102
13793.5 13793.5 1.000000 -1.566169 107.857 22.5252 10.1116
13797 13797 1.000000 -1.564858 107.745 22.5314 10.1229
13800.5 13800.5 1.000000 -1.563775 107.625 22.5307 10.1339
13804.1 13804 1.000000 -1.562695 107.555 22.5403 10.15
13807.6 13807.6 1.000000 -1.561557 107.452 22.5443 10.1633
13811.2 13811.2 1.000000 -1.560493 107.348 22.5466 10.1781
13814.8 13814.8 1.000000 -1.559341 107.201 22.5416 10.1861
13818.4 13818.4 1.000000 -1.558273 107.155 22.5561 10.2036
13822.1 13822 1.000000 -1.557044 107.041 22.5598 10.2162
13825.7 13825.7 1.000000 -1.555964 106.895 22.5534 10.2236
13829.4 13829.4 1.000000 -1.554606 106.8 22.564 10.2344
13833.1 13833 1.000000 -1.553532 106.694 22.5658 10.2447
13836.8 13836.8 1.000000 -1.552493 106.594 22.568 10.253
13840.5 13840.5 1.000000 -1.551255 106.498 22.5756 10.2619
13844.3 13844.2 1.000000 -1.550051 106.379 22.5775 10.2734
13848 13848 1.000000 -1.548950 106.255 22.5761 10.2795
13851.8 13851.8 1.000000 -1.547777 106.052 22.5595 10.2814
13855.6 13855.6 1.000000 -1.546473 105.919 22.5606 10.2904
13859.4 13859.4 1.000000 -1.545381 105.876 22.5761 10.3086
13863.3 13863.2 1.000000 -1.544092 105.762 22.5809 10.3169
13867.1 13867.1 1.000000 -1.542826 105.608 22.5764 10.3254
13871 13871 1.000000 -1.541558 105.454 22.5722 10.3329
13874.9 13874.9 1.000000 -1.540272 105.267 22.5612 10.3357
13878.8 13878.8 1.000000 -1.539002 104.969 22.5259 10.3283
13882.8 13882.8 1.000000 -1.537804 104.746 22.5049 10.3301
13886.7 13886.7 1.000000 -1.536506 104.45 22.4705 10.3255
13890.7 13890.7 1.000000 -1.535139 104.127 22.4316 10.3176
13894.7 13894.7 1.000000 -1.533929 103.802 22.3886 10.3083
13898.7 13898.7 1.000000 -1.532660 103.809 22.4185 10.3347
13902.8 13902.7 1.000000 -1.531446 103.691 22.4204 10.3484
13906.8 13906.8 1.000000 -1.530093 103.738 22.461 10.3784
13911 13910.9 1.000000 -1.528731 103.593 22.46 10.3886
13914.9 13914.9 1.000000 -1.527684 103.471 22.4571 10.4007
13919 13919 1.000000 -1.526253 103.251 22.4415 10.4018
13923.2 13923.2 1.000000 -1.524982 103.199 22.4586 10.422
13927.3 13927.3 1.000000 -1.523607 103.134 22.4755 10.4404
13931.5 13931.5 1.000000 -1.522317 103.09 22.4949 10.4589
13935.7 13935.7 1.000000 -1.521104 102.999 22.5023 10.477
13939.8 13939.9 1.000000 -1.519738 102.878 22.5065 10.488
13944.1 13944.1 1.000000 -1.518454 102.738 22.5048 10.4994
13948.3 13948.4 1.000000 -1.517137 102.631 22.5109 10.5128
13952.6 13952.6 1.000000 -1.515852 102.486 22.5081 10.5248
13956.9 13956.9 1.000000 -1.514436 102.314 22.5021 10.5332
13961.2 13961.2 1.000000 -1.513284 102.11 22.4831 10.5363
13965.6 13965.5 1.000000 -1.511840 101.663 22.4171 10.5154
13969.9 13969.9 1.000000 -1.510677 94.8469 20.9384 9.829088
13974.3 13974.2 1.000000 -1.509132 102.261 22.6101 10.6264
13978.7 13978.6 1.000000 -1.507706 102.126 22.6124 10.6371
13983 13983 1.000000 -1.506428 101.962 22.605 10.6472
13987.5 13987.4 1.000000 -1.505261 101.815 22.5989 10.6549
13991.9 13991.8 1.000000 -1.503734 101.675 22.6022 10.6696
13996.3 13996.3 1.000000 -1.502460 101.778 22.6539 10.7061
14000.8 14000.8 1.000000 -1.501029 101.651 22.6582 10.7203
14005.3 14005.2 1.000000 -1.499653 101.527 22.6616 10.7337
14009.8 14009.8 1.000000 -1.498226 101.407 22.6671 10.7466
14014.3 14014.3 1.000000 -1.496911 101.277 22.6679 10.7624
14018.8 14018.8 1.000000 -1.495418 101.143 22.6718 10.7725
14023.4 14023.4 1.000000 -1.494206 100.996 22.6661 10.7813
14028 14028 1.000000 -1.492756 100.863 22.6692 10.7913
14032.6 14032.6 1.000000 -1.491310 100.743 22.6751 10.8063
14037.2 14037.2 1.000000 -1.490044 100.63 22.6782 10.8189
14041.9 14041.9 1.000000 -1.488573 100.502 22.6827 10.8317
14046.5 14046.5 1.000000 -1.487140 100.402 22.6926 10.8493
14051.2 14051.2 1.000000 -1.485869 100.273 22.6923 10.8614
14056 14055.9 1.000000 -1.484444 100.13 22.6923 10.8751
14060.6 14060.6 1.000000 -1.483132 99.9678 22.6853 10.8834
14065.4 14065.4 1.000000 -1.481613 99.8263 22.6876 10.8972
14070.2 14070.1 1.000000 -1.480132 99.4851 22.6436 10.8854
14074.9 14074.9 1.000000 -1.478940 92.9492 21.1812 10.1918
14079.7 14079.7 1.000000 -1.477307 99.4024 22.6888 10.9323
14084.5 14084.5 1.000000 -1.475889 99.3957 22.7194 10.959
14089.3 14089.3 1.000000 -1.474495 99.2948 22.728 10.9759
14094.2 14094.2 1.000000 -1.473110 99.1397 22.724 10.9866
14099.1 14099.1 1.000000 -1.471720 98.9427 22.7104 10.9946
14104 14104 1.000000 -1.470282 98.7949 22.7091 11.0033
14108.9 14108.9 1.000000 -1.468872 98.3361 22.6355 10.9825
14113.8 14113.8 1.000000 -1.467383 98.307 22.6625 11.0079
14118.8 14118.7 1.000000 -1.465664 93.1374 21.5077 10.4592
14123.7 14123.7 1.000000 -1.464549 98.6043 22.7956 11.0977
14128.7 14128.7 1.000000 -1.463033 98.3492 22.7711 11.1002
14133.7 14133.7 1.000000 -1.461694 98.1925 22.7653 11.1112
14138.8 14138.7 1.000000 -1.460173 98.078 22.7733 11.1267
14143.8 14143.8 1.000000 -1.458807 97.9558 22.776 11.1394
14148.9 14148.8 1.000000 -1.457390 97.8068 22.7736 11.1537
14154 14153.9 1.000000 -1.455991 97.6017 22.7577 11.1587
14159 14159 1.000000 -1.454541 97.1786 22.6919 11.1383
14164.2 14164.1 1.000000 -1.453431 90.8865 21.2462 10.44
14169.3 14169.3 1.000000 -1.451588 97.2194 22.7686 11.2009
14174.4 14174.4 1.000000 -1.450336 97.1635 22.784 11.223
14179.7 14179.6 1.000000 -1.448734 96.9907 22.78 11.2321
14184.8 14184.8 1.000000 -1.447176 96.8939 22.7927 11.2477
14190.1 14190 1.000000 -1.445778 96.7373 22.7877 11.2603
14195.3 14195.2 1.000000 -1.444286 96.6026 22.79 11.2739
14200.6 14200.5 1.000000 -1.442880 96.4603 22.7884 11.2871
14205.8 14205.8 1.000000 -1.441433 96.315 22.787 11.299
14211.1 14211 1.000000 -1.439853 96.1743 22.7897 11.3147
14216.4 14216.4 1.000000 -1.438396 96.0556 22.7948 11.329