File: Data/Br/Br-K-CaBr2.xdi
# XDI/1.0 BlueSky/1.13.0a3 BMM/2024-2.0-py310-tiled
# Beamline.name: BMM (06BM) -- Beamline for Materials Measurement (NIST)
# Beamline.collimation: paraboloid mirror, 5 nm Rh on 30 nm Pt
# Beamline.xray_source: NSLS-II three-pole wiggler
# Beamline.focusing: not in use
# Beamline.harmonic_rejection: flat mirror, Pt stripe, pitch = 7.0 mrad relative to beam
# Beamline.software: Bluesky 1.13.0a4, Ophyd 1.9.0, DataBroker 2.0.0b45, Python 3.11.6, 2024-2.3-py311-tiled
# Detector.I0: 25 cm N2, NSLS2 IC
# Detector.It: 25 cm N2, NSLS2 IC
# Detector.Ir: 25 cm N2, NSLS2 IC
# Element.edge: K
# Element.symbol: Br
# Element.reference: Br
# Element.reference_material: bromophenol blue
# Facility.name: NSLS-II
# Facility.energy: 3.0
# Facility.GUP: 318519
# Facility.SAF: 316542
# Facility.cycle: 2025-2
# Facility.current: 400.1
# Facility.mode: top-off
# Mono.name: Si(111)
# Mono.d_spacing: 3.13553
# Mono.encoder_resolution: 5e-06
# Mono.angle_offset: 16.0812
# Mono.direction: forward
# Mono.scan_type: step
# Mono.scan_mode: pseudo channel cut
# Sample.name: ...
# Sample.prep: 2 abs. lengths in PEG pellet. Double kapton containment.
# Sample.SDD_position: 205.0
# Sample.x: 66.174
# Sample.y: 176.101
# Sample.wheel_slot: 19
# Sample.wheel_ring: outer
# Scan.edge_energy: 13473.7
# Scan.experimenters: Malin Dixon Wilkins, John Bussey, John Mccloy, Gavin Mccloy, Seonjin Kim, Maxwell Mccloy, John McCloy
# Scan.start_time: 2025-07-09T21:52:45
# Scan.end_time: 2025-07-09T22:00:28
# Scan.uid: d91ab3cc-bfa5-4534-b5ea-ddf6ee773bf5
# Scan.transient_id: 32782
# Scan.plot_hint: ln(I0/It)  --  ln($5/$6)
# Column.1: energy eV
# Column.2: requested_energy eV
# Column.3: measurement_time seconds
# Column.4: xmu
# Column.5: I0 nA
# Column.6: Itrans nA
# Column.7: Irefer nA
# //////////////////////////////////////////////////////////
# ...
# ----------------------------------------------------------
# energy requested_energy measurement_time xmu I0 It Ir
13273.7 13273.7 0.500000 -0.524201 61.0828 36.1627 29.0862
13283.8 13283.7 0.500000 -0.522791 60.9035 36.1075 29.0773
13293.8 13293.7 0.500000 -0.521369 60.7024 36.0395 29.0531
13303.8 13303.7 0.500000 -0.519781 60.4924 35.9718 29.0333
13313.8 13313.7 0.500000 -0.518186 60.4343 35.9947 29.0846
13323.8 13323.7 0.500000 -0.516655 60.2384 35.933 29.0653
13333.8 13333.7 0.500000 -0.515286 60.1043 35.9021 29.0722
13343.7 13343.7 0.500000 -0.513859 60.0021 35.8922 29.0991
13353.7 13353.7 0.500000 -0.512635 59.9069 35.8792 29.1193
13363.8 13363.7 0.500000 -0.511317 59.7454 35.8296 29.1091
13373.7 13373.7 0.500000 -0.509970 59.5713 35.7734 29.0916
13383.7 13383.7 0.500000 -0.508834 59.4454 35.7383 29.0892
13393.7 13393.7 0.500000 -0.507905 59.3063 35.6878 29.0753
13403.6 13403.7 0.500000 -0.507113 59.1754 35.6373 29.0585
13413.7 13413.7 0.500000 -0.506583 59.0588 35.5859 29.0336
13423.7 13423.7 0.500000 -0.506404 58.9113 35.5034 28.9762
13433.7 13433.7 0.500000 -0.507383 58.7522 35.3728 28.8725
13443.7 13443.7 0.500000 -0.509781 58.6027 35.1984 28.699
13445.7 13445.7 0.500000 -0.510660 58.5697 35.1477 28.6475
13447.6 13447.7 0.500000 -0.511623 58.5147 35.0809 28.5779
13449.6 13449.7 0.500000 -0.512766 58.494 35.0284 28.5182
13451.7 13451.7 0.500000 -0.514494 58.4791 34.959 28.4416
13453.7 13453.7 0.500000 -0.516151 58.4453 34.8809 28.3486
13455.6 13455.7 0.500000 -0.518575 58.4225 34.7829 28.2383
13457.7 13457.7 0.500000 -0.521760 58.3898 34.6529 28.0863
13459.7 13459.7 0.500000 -0.525431 58.3532 34.5042 27.9032
13461.6 13461.7 0.500000 -0.530544 58.3254 34.312 27.6715
13463.6 13463.7 0.500000 -0.537280 58.2894 34.0606 27.3569
13464.1 13464.2 0.500000 -0.539409 58.2797 33.9825 27.2587
13464.6 13464.7 0.500000 -0.541770 58.2724 33.8981 27.1531
13465.1 13465.2 0.500000 -0.544430 58.262 33.802 27.0328
13465.7 13465.7 0.500000 -0.547351 58.2513 33.6972 26.9022
13466.2 13466.2 0.500000 -0.550495 58.24 33.5849 26.7517
13466.7 13466.7 0.500000 -0.554160 58.2218 33.4516 26.59
13467.1 13467.2 0.500000 -0.557912 58.2185 33.3245 26.4148
13467.6 13467.7 0.500000 -0.562215 58.2145 33.1791 26.2258
13468.1 13468.2 0.500000 -0.566967 58.1972 33.012 26.0007
13468.6 13468.7 0.500000 -0.572760 58.1805 32.8119 25.7418
13469.1 13469.2 0.500000 -0.578974 58.1429 32.5875 25.4439
13469.6 13469.7 0.500000 -0.585968 58.1187 32.347 25.115
13470.2 13470.2 0.500000 -0.594678 58.1142 32.0639 24.7229
13470.7 13470.7 0.500000 -0.604827 58.1182 31.7423 24.2695
13471.2 13471.2 0.500000 -0.616551 58.1332 31.3804 23.7467
13471.7 13471.7 0.500000 -0.631122 58.1476 30.9342 23.081
13472.2 13472.2 0.500000 -0.649144 58.1483 30.382 22.2571
13472.7 13472.7 0.500000 -0.671304 58.1445 29.7143 21.2348
13473.2 13473.2 0.500000 -0.699610 58.1313 28.8784 19.9496
13473.7 13473.7 0.500000 -0.736945 58.1231 27.8162 18.3259
13474.1 13474.2 0.500000 -0.787107 58.1175 26.4527 16.3113
13474.7 13474.7 0.500000 -0.858553 58.1029 24.6226 13.8583
13475.2 13475.2 0.500000 -0.953771 58.0896 22.3811 11.3037
13475.7 13475.7 0.500000 -1.087154 58.0735 19.5809 8.753363
13476.2 13476.2 0.500000 -1.262541 58.0427 16.4223 6.591785
13476.7 13476.7 0.500000 -1.469139 58.0023 13.3477 4.969458
13477.2 13477.2 0.500000 -1.701636 57.9665 10.5722 3.876076
13477.7 13477.7 0.500000 -1.940784 57.9195 8.316748 3.175348
13478.2 13478.2 0.500000 -2.142235 57.838 6.789737 2.779706
13478.7 13478.7 0.500000 -2.284375 57.6975 5.875781 2.562714
13479.2 13479.2 0.500000 -2.361540 57.5757 5.427943 2.444165
13479.6 13479.7 0.500000 -2.387981 57.5564 5.284534 2.375417
13480.2 13480.2 0.500000 -2.384673 57.6527 5.310910 2.318408
13480.7 13480.7 0.500000 -2.365065 57.7876 5.428749 2.274690
13481.2 13481.2 0.500000 -2.331120 57.919 5.628967 2.249192
13481.7 13481.7 0.500000 -2.284469 57.9898 5.904996 2.262384
13482.2 13482.2 0.500000 -2.228161 58.1494 6.264230 2.327976
13482.7 13482.7 0.500000 -2.155674 58.1368 6.733706 2.444773
13483.2 13483.2 0.500000 -2.082494 58.1069 7.241221 2.599667
13483.7 13483.7 0.500000 -2.007765 58.0816 7.799687 2.798028
13484.2 13484.2 0.500000 -1.938445 58.0748 8.358560 3.006364
13484.7 13484.7 0.500000 -1.873152 58.0854 8.924165 3.230659
13485.2 13485.2 0.500000 -1.819184 58.0935 9.420326 3.444603
13485.7 13485.7 0.500000 -1.771939 58.1014 9.877409 3.661661
13486.2 13486.2 0.500000 -1.735057 58.1017 10.2486 3.852024
13486.7 13486.7 0.500000 -1.708270 58.0893 10.5246 4.016106
13487.2 13487.2 0.500000 -1.689610 58.0811 10.7213 4.154235
13487.7 13487.7 0.500000 -1.680200 58.0717 10.8209 4.255236
13488.2 13488.2 0.500000 -1.681031 58.06 10.8097 4.300698
13488.7 13488.7 0.500000 -1.691029 58.049 10.7002 4.299878
13489.2 13489.2 0.500000 -1.710132 58.0434 10.4967 4.253394
13489.7 13489.7 0.500000 -1.735738 58.0347 10.2298 4.173327
13490.2 13490.2 0.500000 -1.767683 58.0297 9.907298 4.067074
13490.7 13490.7 0.500000 -1.800864 58.0039 9.579697 3.946618
13491.2 13491.2 0.500000 -1.835005 57.9684 9.252504 3.822090
13491.7 13491.7 0.500000 -1.866412 57.9322 8.960817 3.704725
13492.2 13492.2 0.500000 -1.894307 57.9263 8.713427 3.598046
13492.7 13492.7 0.500000 -1.923996 57.9278 8.458745 3.486995
13493.2 13493.2 0.500000 -1.948027 57.9394 8.259555 3.394487
13493.7 13493.7 0.500000 -1.968299 57.9468 8.094843 3.316539
13494.2 13494.2 0.500000 -1.984838 57.9532 7.962931 3.249717
13494.7 13494.7 0.500000 -1.996004 57.9506 7.874168 3.201296
13495.2 13495.2 0.500000 -2.002524 57.9416 7.821777 3.170135
13495.7 13495.7 0.500000 -2.004348 57.9361 7.806782 3.155134
13496.2 13496.2 0.500000 -2.002851 57.9255 7.817040 3.153508
13496.7 13496.7 0.500000 -1.999674 57.9121 7.840106 3.157624
13497.2 13497.2 0.500000 -1.996019 57.9058 7.867962 3.166696
13497.7 13497.7 0.500000 -1.992924 57.898 7.891284 3.174344
13498.2 13498.2 0.500000 -1.991321 57.885 7.902168 3.180992
13498.7 13498.7 1.000000 -1.991557 115.743 15.7969 6.369031
13499.7 13499.7 1.000000 -1.996355 115.656 15.7094 6.368235
13500.7 13500.7 1.000000 -2.003513 115.65 15.5967 6.369468
13501.7 13501.7 1.000000 -2.009147 115.656 15.5098 6.391764
13502.8 13502.8 1.000000 -2.010062 115.626 15.4917 6.437693
13503.8 13503.8 1.000000 -2.005085 115.602 15.5657 6.515770
13504.9 13504.9 1.000000 -1.995046 115.552 15.7159 6.614190
13506 13506 1.000000 -1.981134 115.519 15.9315 6.729656
13507.1 13507.1 1.000000 -1.964714 115.484 16.1903 6.858198
13508.3 13508.3 1.000000 -1.946479 115.454 16.484 6.990466
13509.4 13509.4 1.000000 -1.928416 115.409 16.7779 7.113713
13510.6 13510.6 1.000000 -1.911961 115.366 17.05 7.213877
13511.8 13511.8 1.000000 -1.898361 115.327 17.2776 7.278639
13513 13513 1.000000 -1.887375 115.276 17.4607 7.307166
13514.3 13514.2 1.000000 -1.879911 115.235 17.5853 7.304622
13515.5 13515.5 1.000000 -1.874665 115.194 17.6715 7.283409
13516.8 13516.8 1.000000 -1.871345 115.151 17.7237 7.254044
13518.1 13518 1.000000 -1.869528 115.109 17.7495 7.224966
13519.4 13519.4 1.000000 -1.869035 115.066 17.7515 7.198014
13520.7 13520.7 1.000000 -1.869851 115.011 17.7286 7.177714
13522.1 13522 1.000000 -1.871887 114.972 17.6866 7.165023
13523.4 13523.4 1.000000 -1.874594 114.926 17.6316 7.156660
13524.8 13524.8 1.000000 -1.877894 114.88 17.5665 7.149242
13526.2 13526.2 1.000000 -1.881627 114.798 17.4885 7.138742
13527.6 13527.6 1.000000 -1.885868 114.733 17.4046 7.127714
13529.1 13529 1.000000 -1.890284 114.719 17.3259 7.117870
13530.5 13530.5 1.000000 -1.894602 114.659 17.2422 7.102471
13532 13532 1.000000 -1.898265 114.599 17.1702 7.090864
13533.5 13533.5 1.000000 -1.900467 114.502 17.1179 7.084593
13535 13535 1.000000 -1.901190 114.281 17.0725 7.078159
13536.6 13536.5 1.000000 -1.899776 112.762 16.8694 7.004656
13538.2 13538.1 1.000000 -1.897969 113.227 16.9696 7.057771
13539.7 13539.7 1.000000 -1.892840 113.775 17.1394 7.136519
13541.3 13541.3 1.000000 -1.887206 113.913 17.2572 7.190703
13542.9 13542.9 1.000000 -1.879631 114.45 17.4703 7.286453
13544.6 13544.5 1.000000 -1.871701 114.412 17.6037 7.344456
13546.2 13546.2 1.000000 -1.863860 114.346 17.7319 7.401930
13547.8 13547.9 1.000000 -1.856606 114.285 17.8516 7.454662
13549.6 13549.5 1.000000 -1.850599 114.221 17.949 7.501418
13551.3 13551.2 1.000000 -1.845744 114.149 18.0251 7.540346
13553 13553 1.000000 -1.842035 114.068 18.0791 7.572379
13554.8 13554.7 1.000000 -1.839529 113.918 18.1006 7.589906
13556.5 13556.5 1.000000 -1.837791 112.629 17.927 7.530534
13558.3 13558.3 1.000000 -1.838094 112.792 17.9476 7.551542
13560.1 13560.1 1.000000 -1.838282 113.859 18.1139 7.635591
13562 13561.9 1.000000 -1.839581 113.834 18.0865 7.640371
13563.8 13563.8 1.000000 -1.841321 113.725 18.0376 7.636672
13565.6 13565.6 1.000000 -1.843168 113.122 17.9089 7.596117
13567.5 13567.5 1.000000 -1.845601 113.478 17.9216 7.611821
13569.4 13569.4 1.000000 -1.847780 113.598 17.9015 7.611946
13571.4 13571.3 1.000000 -1.850174 113.453 17.836 7.589388
13573.3 13573.2 1.000000 -1.850756 112.361 17.6539 7.516683
13575.2 13575.2 1.000000 -1.851524 112.297 17.6303 7.511792
13577.2 13577.2 1.000000 -1.850380 113.352 17.8164 7.589761
13579.2 13579.2 1.000000 -1.849564 113.344 17.8297 7.595158
13581.2 13581.2 1.000000 -1.848314 113.27 17.8403 7.599489
13583.2 13583.2 1.000000 -1.846558 113.193 17.8595 7.606710
13585.3 13585.3 1.000000 -1.844422 113.126 17.8871 7.617162
13587.4 13587.4 1.000000 -1.842259 113.025 17.9098 7.628912
13589.4 13589.4 1.000000 -1.839890 112.775 17.9126 7.630962
13591.6 13591.5 1.000000 -1.837715 112.075 17.8401 7.604889
13593.7 13593.7 1.000000 -1.835178 112.192 17.9042 7.637040
13595.8 13595.8 1.000000 -1.834574 111.315 17.7749 7.589702
13598 13598 1.000000 -1.832860 112.821 18.0463 7.712833
13600.2 13600.2 1.000000 -1.831981 112.778 18.0553 7.722589
13602.4 13602.4 1.000000 -1.831093 112.656 18.0519 7.726254
13604.6 13604.6 1.000000 -1.830640 112.564 18.0453 7.728703
13606.9 13606.9 1.000000 -1.830258 112.546 18.0492 7.731208
13609.1 13609.1 1.000000 -1.829847 112.483 18.0466 7.725492
13611.4 13611.4 1.000000 -1.829430 112.372 18.0363 7.716137
13613.7 13613.7 1.000000 -1.829341 112.594 18.0735 7.726433
13616 13616 1.000000 -1.829080 112.577 18.0754 7.720672
13618.4 13618.4 1.000000 -1.828908 112.505 18.067 7.710744
13620.7 13620.7 1.000000 -1.828460 112.363 18.0524 7.700718
13623.1 13623.1 1.000000 -1.827705 112.369 18.067 7.704285
13625.5 13625.5 1.000000 -1.826802 112.301 18.0722 7.708111
13627.9 13627.9 1.000000 -1.825535 112.219 18.082 7.716686
13630.4 13630.3 1.000000 -1.823982 112.076 18.087 7.723770
13632.8 13632.8 1.000000 -1.822353 112.077 18.1167 7.746897
13635.3 13635.2 1.000000 -1.820432 112.007 18.1402 7.770678
13637.8 13637.7 1.000000 -1.818417 111.924 18.1633 7.791398
13640.3 13640.2 1.000000 -1.816427 111.858 18.1887 7.815700
13642.8 13642.8 1.000000 -1.814236 111.767 18.2138 7.837419
13645.3 13645.3 1.000000 -1.812315 111.684 18.2354 7.858372
13647.9 13647.9 1.000000 -1.810719 111.6 18.2507 7.875756
13650.5 13650.5 1.000000 -1.808955 111.471 18.2618 7.886652
13653.1 13653.1 1.000000 -1.807431 110.639 18.1531 7.847117
13655.7 13655.7 1.000000 -1.806269 111.368 18.2939 7.915627
13658.4 13658.4 1.000000 -1.804961 111.35 18.3149 7.933597
13661 13661 1.000000 -1.803923 111.264 18.3198 7.944784
13663.7 13663.7 1.000000 -1.802781 111.188 18.3282 7.957443
13666.4 13666.4 1.000000 -1.801809 111.109 18.333 7.966653
13669.2 13669.1 1.000000 -1.800761 111.02 18.3376 7.979232
13671.9 13671.9 1.000000 -1.799558 110.934 18.3454 7.989600
13674.7 13674.6 1.000000 -1.798501 110.848 18.3505 8.000417
13677.4 13677.4 1.000000 -1.797491 110.766 18.3556 8.009854
13680.2 13680.2 1.000000 -1.796159 110.673 18.3645 8.018869
13683 13683 1.000000 -1.794964 110.596 18.3737 8.029104
13685.9 13685.8 1.000000 -1.793883 110.508 18.3789 8.034963
13688.7 13688.7 1.000000 -1.792820 110.419 18.3837 8.039299
13691.6 13691.5 1.000000 -1.791941 110.333 18.3854 8.046382
13694.5 13694.4 1.000000 -1.790656 110.251 18.3955 8.054856
13697.4 13697.4 1.000000 -1.789535 110.177 18.4038 8.063300
13700.3 13700.3 1.000000 -1.788207 110.079 18.4117 8.068379
13703.3 13703.2 1.000000 -1.786832 110.005 18.4248 8.077516
13706.2 13706.2 1.000000 -1.785531 109.913 18.4333 8.083214
13709.2 13709.2 1.000000 -1.784242 109.84 18.4447 8.089219
13712.2 13712.2 1.000000 -1.782945 109.745 18.4528 8.094686
13715.2 13715.2 1.000000 -1.781721 109.667 18.4623 8.102136
13718.3 13718.2 1.000000 -1.780490 109.581 18.4705 8.110516
13721.3 13721.3 1.000000 -1.779087 109.493 18.4816 8.119862
13724.4 13724.4 1.000000 -1.777804 109.41 18.4913 8.132177
13727.5 13727.5 1.000000 -1.776557 109.326 18.5002 8.144700
13730.7 13730.6 1.000000 -1.775149 109.227 18.5094 8.158350
13733.8 13733.8 1.000000 -1.773944 109.142 18.5174 8.171154
13736.9 13736.9 1.000000 -1.772739 109.056 18.5251 8.183428
13740.1 13740.1 1.000000 -1.771418 108.968 18.5346 8.195461
13743.3 13743.3 1.000000 -1.770196 108.872 18.5409 8.205219
13746.5 13746.5 1.000000 -1.768846 108.782 18.5505 8.213070
13749.8 13749.7 1.000000 -1.767580 108.686 18.5577 8.219404
13753 13753 1.000000 -1.766050 108.565 18.5654 8.224887
13756.3 13756.2 1.000000 -1.764703 108.484 18.5766 8.233559
13759.6 13759.5 1.000000 -1.763170 108.394 18.5896 8.242659
13762.9 13762.9 1.000000 -1.761621 108.297 18.6017 8.254587
13766.2 13766.2 1.000000 -1.760190 108.183 18.6089 8.266825
13769.5 13769.5 1.000000 -1.758544 108.09 18.6234 8.279522
13772.9 13772.9 1.000000 -1.757131 107.996 18.6335 8.295499
13776.3 13776.3 1.000000 -1.755511 107.899 18.6469 8.309884
13779.7 13779.7 1.000000 -1.754182 107.804 18.6554 8.323628
13783.1 13783.1 1.000000 -1.752381 107.693 18.6698 8.336258
13786.6 13786.5 1.000000 -1.751035 107.604 18.6795 8.350720
13790 13790 1.000000 -1.749499 107.498 18.6897 8.363903
13793.5 13793.5 1.000000 -1.747922 107.41 18.7038 8.376912
13797 13797 1.000000 -1.746519 107.296 18.7102 8.389131
13800.5 13800.5 1.000000 -1.744792 107.202 18.7263 8.402750
13804.1 13804 1.000000 -1.743299 107.092 18.735 8.415287
13807.6 13807.6 1.000000 -1.741586 106.991 18.7493 8.431027
13811.2 13811.2 1.000000 -1.740099 106.892 18.7599 8.446170
13814.8 13814.8 1.000000 -1.738415 106.715 18.7604 8.456442
13818.4 13818.4 1.000000 -1.736934 106.673 18.7807 8.475070
13822.1 13822 1.000000 -1.735315 106.56 18.7913 8.488244
13825.7 13825.7 1.000000 -1.733777 106.425 18.7964 8.501151
13829.4 13829.4 1.000000 -1.732178 106.338 18.811 8.513226
13833.1 13833 1.000000 -1.730374 106.219 18.824 8.523996
13836.8 13836.8 1.000000 -1.728709 106.133 18.84 8.538325
13840.5 13840.5 1.000000 -1.727113 106.015 18.8492 8.549725
13844.3 13844.2 1.000000 -1.725374 105.909 18.8632 8.561350
13848 13848 1.000000 -1.723655 105.75 18.8671 8.571476
13851.8 13851.8 1.000000 -1.721838 105.575 18.8703 8.579504
13855.6 13855.6 1.000000 -1.720190 105.442 18.8775 8.590888
13859.5 13859.4 1.000000 -1.718461 105.388 18.9005 8.608630
13863.3 13863.2 1.000000 -1.716650 105.268 18.9132 8.621282
13867.1 13867.1 1.000000 -1.714940 105.119 18.9187 8.632666
13871 13871 1.000000 -1.713186 104.954 18.9221 8.640277
13874.9 13874.9 1.000000 -1.711384 104.771 18.9233 8.648748
13878.8 13878.8 1.000000 -1.709632 104.471 18.9021 8.645659
13882.8 13882.8 1.000000 -1.707966 104.244 18.8926 8.650463
13886.7 13886.7 1.000000 -1.706056 104.018 18.8876 8.654730
13890.7 13890.7 1.000000 -1.704342 103.92 18.9022 8.673401
13894.7 13894.7 1.000000 -1.702602 103.599 18.8767 8.670234
13898.7 13898.7 1.000000 -1.700836 103.613 18.9125 8.697464
13902.8 13902.7 1.000000 -1.699079 103.464 18.9185 8.711065
13906.8 13906.8 1.000000 -1.697176 103.526 18.966 8.741254
13910.9 13910.9 1.000000 -1.695642 103.388 18.9698 8.754517
13915 13914.9 1.000000 -1.693668 103.259 18.9836 8.769652
13919.1 13919 1.000000 -1.691923 103.058 18.9796 8.777953
13923.2 13923.2 1.000000 -1.690120 103.001 19.0034 8.797121
13927.4 13927.3 1.000000 -1.688144 102.925 19.027 8.818079
13931.5 13931.5 1.000000 -1.686403 102.88 19.0517 8.839777
13935.7 13935.7 1.000000 -1.684432 102.778 19.0704 8.855998
13939.9 13939.9 1.000000 -1.682643 102.659 19.0825 8.872695
13944.1 13944.1 1.000000 -1.680757 102.501 19.089 8.885957
13948.4 13948.4 1.000000 -1.678851 102.398 19.1062 8.903088
13952.7 13952.6 1.000000 -1.677130 102.255 19.1125 8.916087
13956.9 13956.9 1.000000 -1.675092 102.095 19.1214 8.928235
13961.2 13961.2 1.000000 -1.673173 101.85 19.1123 8.935551
13965.5 13965.5 1.000000 -1.671277 101.418 19.0672 8.919426
13969.9 13969.9 1.000000 -1.668579 94.6584 17.8445 8.357171
13974.2 13974.2 1.000000 -1.667678 102.064 19.258 9.028089
13978.6 13978.6 1.000000 -1.665698 101.903 19.2657 9.041415
13983 13983 1.000000 -1.663688 101.733 19.2721 9.054900
13987.4 13987.4 1.000000 -1.661916 101.587 19.2787 9.067610
13991.8 13991.8 1.000000 -1.660013 101.445 19.2884 9.083274
13996.3 13996.3 1.000000 -1.658139 101.297 19.2965 9.097153
14000.8 14000.8 1.000000 -1.656238 101.17 19.309 9.115313
14005.3 14005.2 1.000000 -1.654204 101.048 19.3249 9.132634
14009.8 14009.8 1.000000 -1.652354 100.919 19.3359 9.147854
14014.3 14014.3 1.000000 -1.650491 100.781 19.3455 9.162426
14018.9 14018.8 1.000000 -1.648403 100.639 19.3586 9.176594
14023.4 14023.4 1.000000 -1.646512 100.515 19.3714 9.191604
14028 14028 1.000000 -1.644555 100.372 19.3817 9.205590
14032.6 14032.6 1.000000 -1.642671 100.235 19.3918 9.220922
14037.2 14037.2 1.000000 -1.640734 100.114 19.406 9.237355
14041.9 14041.9 1.000000 -1.638887 99.9762 19.415 9.251219
14046.6 14046.5 1.000000 -1.636839 99.8558 19.4313 9.268426
14051.2 14051.2 1.000000 -1.634973 99.7416 19.4454 9.286744
14056 14055.9 1.000000 -1.632903 99.5875 19.4556 9.301158
14060.6 14060.6 1.000000 -1.631068 99.4441 19.4632 9.316227
14065.4 14065.4 1.000000 -1.629006 99.3018 19.4755 9.331106
14070.2 14070.1 1.000000 -1.627123 98.9648 19.446 9.327868
14074.9 14074.9 1.000000 -1.623569 92.4461 18.2298 8.750985
14079.8 14079.7 1.000000 -1.623050 98.8393 19.5006 9.374855
14084.6 14084.5 1.000000 -1.621104 98.8504 19.5408 9.404377
14089.9 14089.3 1.000000 -1.619074 98.6946 19.5496 9.419059
14094.2 14094.2 1.000000 -1.617334 98.5418 19.5534 9.433255
14099.1 14099.1 1.000000 -1.615254 98.3705 19.56 9.446385
14104 14104 1.000000 -1.613221 98.1961 19.5651 9.458541
14108.9 14108.9 1.000000 -1.611311 97.7331 19.51 9.443782
14113.8 14113.8 1.000000 -1.609386 97.7057 19.5422 9.471088
14118.8 14118.7 1.000000 -1.605115 92.6794 18.6162 9.029138
14123.7 14123.7 1.000000 -1.605364 98.006 19.6812 9.560584
14128.8 14128.7 1.000000 -1.603283 97.7559 19.6719 9.566352
14133.7 14133.7 1.000000 -1.601293 97.5762 19.6748 9.580687
14138.8 14138.7 1.000000 -1.599330 97.4506 19.6881 9.596326
14143.8 14143.8 1.000000 -1.597266 97.3268 19.7037 9.615652
14148.9 14148.8 1.000000 -1.595315 97.1644 19.7093 9.630966
14153.9 14153.9 1.000000 -1.593395 96.9792 19.7095 9.642796
14159 14159 1.000000 -1.591388 96.5686 19.6655 9.631223
14164.2 14164.1 1.000000 -1.589294 90.3427 18.4362 9.038107
14169.3 14169.3 1.000000 -1.587279 96.5733 19.7474 9.690917
14174.5 14174.4 1.000000 -1.585346 96.5102 19.7727 9.714640
14179.6 14179.6 1.000000 -1.583265 96.3291 19.7767 9.730197
14184.8 14184.8 1.000000 -1.581149 96.2318 19.7986 9.748637
14190 14190 1.000000 -1.579340 96.097 19.8067 9.765479
14195.3 14195.2 1.000000 -1.577136 95.9626 19.8226 9.782930
14200.5 14200.5 1.000000 -1.575192 95.8077 19.8291 9.797359
14205.8 14205.8 1.000000 -1.573087 95.6655 19.8414 9.814481
14211.1 14211 1.000000 -1.571059 95.5168 19.8508 9.829509
14216.4 14216.4 1.000000 -1.568979 95.3725 19.8621 9.846906